STUDYID,DOMAIN,USUBJID,AESEQ,AESPID,AETERM,AELLT,AELLTCD,AEDECOD,AEPTCD,AEHLT,AEHLTCD,AEHLGT,AEHLGTCD,AEBODSYS,AEBDSYCD,AESOC,AESOCCD,AESEV,AESER,AEACN,AEREL,AEOUT,AESCAN,AESCONG,AESDISAB,AESDTH,AESHOSP,AESLIFE,AESOD,AEDTC,AESTDTC,AEENDTC,AESTDY,AEENDY,AEDUR,week
CDISCPILOT01,AE,01-701-1015,,E07,APPLICATION SITE ERYTHEMA,APPLICATION SITE REDNESS,,APPLICATION SITE ERYTHEMA,,HLT_0617,,HLGT_0152,,GENERAL DISORDERS AND ADMINISTRATION SITE CONDITIONS,,GENERAL DISORDERS AND ADMINISTRATION SITE CONDITIONS,,MILD,false,,PROBABLE,NOT RECOVERED/NOT RESOLVED,false,false,false,false,false,false,false,1/16/2014,01-03-2014,,2,1,-1,0
CDISCPILOT01,AE,01-701-1015,2,E08,APPLICATION SITE PRURITUS,APPLICATION SITE ITCHING,,APPLICATION SITE PRURITUS,,HLT_0317,,HLGT_0338,,GENERAL DISORDERS AND ADMINISTRATION SITE CONDITIONS,,GENERAL DISORDERS AND ADMINISTRATION SITE CONDITIONS,,MILD,false,,PROBABLE,NOT RECOVERED/NOT RESOLVED,false,false,false,false,false,false,false,1/16/2014,2014-01-03,,2,,1,0
CDISCPILOT01,AE,01-701-1015,3,E06,DIARRHOEA,DIARRHEA,,DIARRHOEA,,HLT_0148,,HLGT_0588,,GASTROINTESTINAL DISORDERS,,GASTROINTESTINAL DISORDERS,,MILD,false,,REMOTE,RECOVERED/RESOLVED,false,false,false,false,false,false,false,1/16/2014,2014-01-09,1/11/2014 03:00,8,10,2,1
CDISCPILOT01,AE,01-701-1023,3,E10,ATRIOVENTRICULAR BLOCK SECOND DEGREE,AV BLOCK SECOND DEGREE,,ATRIOVENTRICULAR BLOCK SECOND DEGREE,,HLT_0415,,HLGT_0086,,CARDIAC DISORDERS,,CARDIAC DISORDERS,,MILD,false,,POSSIBLE,NOT RECOVERED/NOT RESOLVED,false,false,false,false,false,false,false,8/27/2012,2012-08-26,,22,,3,3
CDISCPILOT01,AE,01-701-1023,1,E08,ERYTHEMA,ERYTHEMA,,ERYTHEMA,,HLT_0284,,HLGT_0192,,SKIN AND SUBCUTANEOUS TISSUE DISORDERS,,SKIN AND SUBCUTANEOUS TISSUE DISORDERS,,MILD,false,,POSSIBLE,NOT RECOVERED/NOT RESOLVED,false,false,false,false,false,false,false,8/27/2012,2012-08-07,8/30/2012 00:00,3,26,,0
CDISCPILOT01,AE,01-701-1023,2,E09,ERYTHEMA,LOCALIZED ERYTHEMA,,ERYTHEMA,,HLT_0284,,HLGT_0192,,SKIN AND SUBCUTANEOUS TISSUE DISORDERS,,SKIN AND SUBCUTANEOUS TISSUE DISORDERS,,MODERATE,false,,PROBABLE,NOT RECOVERED/NOT RESOLVED,false,false,false,false,false,false,false,8/27/2012,2012-08-07,,3,,,0
CDISCPILOT01,AE,01-701-1023,4,E08,ERYTHEMA,ERYTHEMA,,ERYTHEMA,,HLT_0284,,HLGT_0192,,SKIN AND SUBCUTANEOUS TISSUE DISORDERS,,SKIN AND SUBCUTANEOUS TISSUE DISORDERS,,MILD,false,,POSSIBLE,RECOVERED/RESOLVED,false,false,false,false,false,false,false,9/2/2012,2012-08-07,8/30/2012 00:00,3,26,,0
CDISCPILOT01,AE,01-701-1028,1,E04,APPLICATION SITE ERYTHEMA,APPLICATION SITE ERYTHEMA,,APPLICATION SITE ERYTHEMA,,HLT_0617,,HLGT_0152,,GENERAL DISORDERS AND ADMINISTRATION SITE CONDITIONS,,GENERAL DISORDERS AND ADMINISTRATION SITE CONDITIONS,,MILD,false,,POSSIBLE,NOT RECOVERED/NOT RESOLVED,false,false,false,false,false,false,false,8/1/2013,2013-07-21,,3,,,0
CDISCPILOT01,AE,01-701-1028,2,E05,APPLICATION SITE PRURITUS,APPLICATION SITE ITCHING,,APPLICATION SITE PRURITUS,,HLT_0317,,HLGT_0338,,GENERAL DISORDERS AND ADMINISTRATION SITE CONDITIONS,,GENERAL DISORDERS AND ADMINISTRATION SITE CONDITIONS,,MILD,false,,PROBABLE,NOT RECOVERED/NOT RESOLVED,false,false,false,false,false,false,false,8/14/2013,2013-08-08,,21,,,3
CDISCPILOT01,AE,01-701-1034,1,E08,APPLICATION SITE PRURITUS,APPLICATION SITE ITCHING,,APPLICATION SITE PRURITUS,,HLT_0317,,HLGT_0338,,GENERAL DISORDERS AND ADMINISTRATION SITE CONDITIONS,,GENERAL DISORDERS AND ADMINISTRATION SITE CONDITIONS,,MILD,false,,PROBABLE,NOT RECOVERED/NOT RESOLVED,false,false,false,false,false,false,false,9/25/2014,2014-08-27,,58,,,8
CDISCPILOT01,AE,01-701-1034,2,E07,FATIGUE,FATIGUE,,FATIGUE,,HLT_0043,,HLGT_0181,,GENERAL DISORDERS AND ADMINISTRATION SITE CONDITIONS,,GENERAL DISORDERS AND ADMINISTRATION SITE CONDITIONS,,MILD,false,,POSSIBLE,NOT RECOVERED/NOT RESOLVED,false,false,false,false,false,false,false,11/17/2014,2014-11-02,,125,,,17
CDISCPILOT01,AE,01-701-1047,4,E09,BUNDLE BRANCH BLOCK LEFT,LEFT BUNDLE BRANCH BLOCK,,BUNDLE BRANCH BLOCK LEFT,,HLT_0281,,HLGT_0721,,CARDIAC DISORDERS,,CARDIAC DISORDERS,,MILD,false,,NONE,NOT RECOVERED/NOT RESOLVED,false,false,false,false,false,false,false,3/10/2013,2013-03-10,,27,,,3
CDISCPILOT01,AE,01-701-1047,1,E06,HIATUS HERNIA,HERNIA HIATAL,,HIATUS HERNIA,,HLT_0159,,HLGT_0109,,GASTROINTESTINAL DISORDERS,,GASTROINTESTINAL DISORDERS,,MODERATE,false,,NONE,NOT RECOVERED/NOT RESOLVED,false,false,false,false,false,false,false,2/12/2013,2013-02-12,2/12/2013 03:00,1,1,,0
CDISCPILOT01,AE,01-701-1047,2,E06,HIATUS HERNIA,HERNIA HIATAL,,HIATUS HERNIA,,HLT_0159,,HLGT_0109,,GASTROINTESTINAL DISORDERS,,GASTROINTESTINAL DISORDERS,,MODERATE,false,,NONE,RECOVERED/RESOLVED,false,false,false,false,false,false,false,2/25/2013,2013-02-12,2/12/2013 03:00,1,1,,0
CDISCPILOT01,AE,01-701-1047,3,E08,UPPER RESPIRATORY TRACT INFECTION,UPPER RESPIRATORY INFECTION,,UPPER RESPIRATORY TRACT INFECTION,,HLT_0520,,HLGT_0489,,INFECTIONS AND INFESTATIONS,,INFECTIONS AND INFESTATIONS,,MILD,false,,NONE,NOT RECOVERED/NOT RESOLVED,false,false,false,false,false,false,false,3/10/2013,2013-03-06,,23,,,3
CDISCPILOT01,AE,01-701-1097,4,E06,APPLICATION SITE PRURITUS,APPLICATION SITE ITCHING,,APPLICATION SITE PRURITUS,,HLT_0317,,HLGT_0338,,GENERAL DISORDERS AND ADMINISTRATION SITE CONDITIONS,,GENERAL DISORDERS AND ADMINISTRATION SITE CONDITIONS,,MILD,false,,POSSIBLE,NOT RECOVERED/NOT RESOLVED,false,false,false,false,false,false,false,2/26/2014,2014-02-21,,52,,,7
CDISCPILOT01,AE,01-701-1097,10,E06,APPLICATION SITE PRURITUS,APPLICATION SITE ITCHING,,APPLICATION SITE PRURITUS,,HLT_0317,,HLGT_0338,,GENERAL DISORDERS AND ADMINISTRATION SITE CONDITIONS,,GENERAL DISORDERS AND ADMINISTRATION SITE CONDITIONS,,MODERATE,false,,POSSIBLE,NOT RECOVERED/NOT RESOLVED,false,false,false,false,false,false,false,5/21/2014,2014-02-21,,52,,,7
CDISCPILOT01,AE,01-701-1097,3,E07,APPLICATION SITE VESICLES,APPLICATION SITE BLISTER,,APPLICATION SITE VESICLES,,HLT_0180,,HLGT_0576,,GENERAL DISORDERS AND ADMINISTRATION SITE CONDITIONS,,GENERAL DISORDERS AND ADMINISTRATION SITE CONDITIONS,,MILD,false,,PROBABLE,RECOVERED/RESOLVED,false,false,false,false,false,false,false,2/26/2014,2014-02-20,2/22/2014 03:00,51,53,,7
CDISCPILOT01,AE,01-701-1097,1,E04,ERYTHEMA,ERYTHEMA,,ERYTHEMA,,HLT_0284,,HLGT_0192,,SKIN AND SUBCUTANEOUS TISSUE DISORDERS,,SKIN AND SUBCUTANEOUS TISSUE DISORDERS,,MILD,false,,POSSIBLE,NOT RECOVERED/NOT RESOLVED,false,false,false,false,false,false,false,1/15/2014,2014-01-03,,3,,,0
CDISCPILOT01,AE,01-701-1097,9,E11,NASAL CONGESTION,NASAL CONGESTION,,NASAL CONGESTION,,HLT_0118,,HLGT_0549,,"RESPIRATORY, THORACIC AND MEDIASTINAL DISORDERS",,"RESPIRATORY, THORACIC AND MEDIASTINAL DISORDERS",,MILD,false,,NONE,RECOVERED/RESOLVED,false,false,false,false,false,false,false,4/23/2014,2014-04-19,4/22/2014 00:00,109,112,,15
CDISCPILOT01,AE,01-701-1097,8,E10,PHARYNGOLARYNGEAL PAIN,SORE THROAT,,PHARYNGOLARYNGEAL PAIN,,HLT_0130,,HLGT_0402,,"RESPIRATORY, THORACIC AND MEDIASTINAL DISORDERS",,"RESPIRATORY, THORACIC AND MEDIASTINAL DISORDERS",,MILD,false,,NONE,RECOVERED/RESOLVED,false,false,false,false,false,false,false,4/23/2014,2014-04-19,4/22/2014 00:00,109,112,,15
CDISCPILOT01,AE,01-701-1097,2,E05,PRURITUS GENERALISED,GENERALIZED PRURITUS,,PRURITUS GENERALISED,,HLT_0123,,HLGT_0689,,SKIN AND SUBCUTANEOUS TISSUE DISORDERS,,SKIN AND SUBCUTANEOUS TISSUE DISORDERS,,MODERATE,false,,POSSIBLE,RECOVERED/RESOLVED,false,false,false,false,false,false,false,2/26/2014,2014-02-20,2/20/2014 03:00,51,51,,7
CDISCPILOT01,AE,01-701-1097,5,E08,PRURITUS GENERALISED,GENERALIZED PRURITUS,,PRURITUS GENERALISED,,HLT_0123,,HLGT_0689,,SKIN AND SUBCUTANEOUS TISSUE DISORDERS,,SKIN AND SUBCUTANEOUS TISSUE DISORDERS,,MODERATE,false,,POSSIBLE,RECOVERED/RESOLVED,false,false,false,false,false,false,false,3/26/2014,2014-03-21,3/21/2014 04:00,80,80,,11
CDISCPILOT01,AE,01-701-1097,6,E12,PRURITUS GENERALISED,GENERALIZED PRURITUS,,PRURITUS GENERALISED,,HLT_0123,,HLGT_0689,,SKIN AND SUBCUTANEOUS TISSUE DISORDERS,,SKIN AND SUBCUTANEOUS TISSUE DISORDERS,,MODERATE,false,,POSSIBLE,RECOVERED/RESOLVED,false,false,false,false,false,false,false,4/23/2014,2014-03-31,3/31/2014 00:00,90,90,,12
CDISCPILOT01,AE,01-701-1097,7,E09,PRURITUS GENERALISED,GENERALIZED PRURITUS,,PRURITUS GENERALISED,,HLT_0123,,HLGT_0689,,SKIN AND SUBCUTANEOUS TISSUE DISORDERS,,SKIN AND SUBCUTANEOUS TISSUE DISORDERS,,MODERATE,false,,POSSIBLE,RECOVERED/RESOLVED,false,false,false,false,false,false,false,4/23/2014,2014-04-19,4/20/2014 00:00,109,110,,15
CDISCPILOT01,AE,01-701-1111,7,E16,ARTHRALGIA,GENERALIZED JOINT PAIN,,ARTHRALGIA,,HLT_0375,,HLGT_0610,,MUSCULOSKELETAL AND CONNECTIVE TISSUE DISORDERS,,MUSCULOSKELETAL AND CONNECTIVE TISSUE DISORDERS,,MODERATE,false,,NONE,NOT RECOVERED/NOT RESOLVED,false,false,false,false,false,false,false,9/17/2012,2012-09-13,,7,,,1
CDISCPILOT01,AE,01-701-1111,8,E17,CELLULITIS,CELLULITIS OF LEG,,CELLULITIS,,HLT_0613,,HLGT_0066,,INFECTIONS AND INFESTATIONS,,INFECTIONS AND INFESTATIONS,,MODERATE,false,,NONE,NOT RECOVERED/NOT RESOLVED,false,false,false,false,false,false,false,9/17/2012,2012-09-13,,7,,,1
CDISCPILOT01,AE,01-701-1111,1,E14,ERYTHEMA,ERYTHEMA,,ERYTHEMA,,HLT_0284,,HLGT_0192,,SKIN AND SUBCUTANEOUS TISSUE DISORDERS,,SKIN AND SUBCUTANEOUS TISSUE DISORDERS,,MILD,false,,NONE,NOT RECOVERED/NOT RESOLVED,false,false,false,false,false,false,false,9/5/2012,2012-09-02,9/7/2012 00:00,-5,1,,-1
CDISCPILOT01,AE,01-701-1111,4,E14,ERYTHEMA,ERYTHEMA,,ERYTHEMA,,HLT_0284,,HLGT_0192,,SKIN AND SUBCUTANEOUS TISSUE DISORDERS,,SKIN AND SUBCUTANEOUS TISSUE DISORDERS,,MILD,false,,NONE,RECOVERED/RESOLVED,false,false,false,false,false,false,false,9/17/2012,2012-09-02,9/7/2012 00:00,-5,1,,-1
CDISCPILOT01,AE,01-701-1111,3,E06,LOCALISED INFECTION,LOCALIZED INFECTION,,LOCALISED INFECTION,,HLT_0435,,HLGT_0557,,INFECTIONS AND INFESTATIONS,,INFECTIONS AND INFESTATIONS,,MODERATE,false,,NONE,NOT RECOVERED/NOT RESOLVED,false,false,false,false,false,false,false,9/17/2012,2012-07-08,,10,12,,1
CDISCPILOT01,AE,01-701-1111,6,E18,MICTURITION URGENCY,URINARY URGENCY,,MICTURITION URGENCY,,HLT_0294,,HLGT_0483,,RENAL AND URINARY DISORDERS,,RENAL AND URINARY DISORDERS,,MILD,false,,NONE,NOT RECOVERED/NOT RESOLVED,false,false,false,false,false,false,false,9/17/2012,2012-09-07,,1,,,0
CDISCPILOT01,AE,01-701-1111,2,E15,PRURITUS,ITCHING,,PRURITUS,,HLT_0778,,HLGT_0695,,SKIN AND SUBCUTANEOUS TISSUE DISORDERS,,SKIN AND SUBCUTANEOUS TISSUE DISORDERS,,MILD,false,,NONE,NOT RECOVERED/NOT RESOLVED,false,false,false,false,false,false,false,9/5/2012,2012-09-02,9/7/2012 00:00,-5,1,,-1
CDISCPILOT01,AE,01-701-1111,5,E15,PRURITUS,ITCHING,,PRURITUS,,HLT_0778,,HLGT_0695,,SKIN AND SUBCUTANEOUS TISSUE DISORDERS,,SKIN AND SUBCUTANEOUS TISSUE DISORDERS,,MILD,false,,NONE,RECOVERED/RESOLVED,false,false,false,false,false,false,false,9/17/2012,2012-09-02,9/7/2012 00:00,-5,1,,-1
CDISCPILOT01,AE,01-701-1115,9,E14,APPLICATION SITE DERMATITIS,APPLICATION SITE RASH,,APPLICATION SITE DERMATITIS,,HLT_0343,,HLGT_0241,,GENERAL DISORDERS AND ADMINISTRATION SITE CONDITIONS,,GENERAL DISORDERS AND ADMINISTRATION SITE CONDITIONS,,MODERATE,false,,PROBABLE,NOT RECOVERED/NOT RESOLVED,false,false,false,false,false,false,false,1/23/2013,2013-01-19,,51,,,7
CDISCPILOT01,AE,01-701-1115,1,E09,APPLICATION SITE ERYTHEMA,APPLICATION SITE REDNESS,,APPLICATION SITE ERYTHEMA,,HLT_0617,,HLGT_0152,,GENERAL DISORDERS AND ADMINISTRATION SITE CONDITIONS,,GENERAL DISORDERS AND ADMINISTRATION SITE CONDITIONS,,MILD,false,,PROBABLE,NOT RECOVERED/NOT RESOLVED,false,false,false,false,false,false,false,12/13/2012,2012-12-02,,3,,,0
CDISCPILOT01,AE,01-701-1115,5,E09,APPLICATION SITE ERYTHEMA,APPLICATION SITE REDNESS,,APPLICATION SITE ERYTHEMA,,HLT_0617,,HLGT_0152,,GENERAL DISORDERS AND ADMINISTRATION SITE CONDITIONS,,GENERAL DISORDERS AND ADMINISTRATION SITE CONDITIONS,,MODERATE,false,,PROBABLE,NOT RECOVERED/NOT RESOLVED,false,false,false,false,false,false,false,1/23/2013,2012-12-02,,3,,,0
CDISCPILOT01,AE,01-701-1115,3,E10,APPLICATION SITE IRRITATION,APPLICATION SITE BURNING,,APPLICATION SITE IRRITATION,,HLT_0061,,HLGT_0346,,GENERAL DISORDERS AND ADMINISTRATION SITE CONDITIONS,,GENERAL DISORDERS AND ADMINISTRATION SITE CONDITIONS,,MILD,false,,POSSIBLE,NOT RECOVERED/NOT RESOLVED,false,false,false,false,false,false,false,12/26/2012,2012-12-26,12/26/2012 03:00,27,27,,3
CDISCPILOT01,AE,01-701-1115,4,E10,APPLICATION SITE IRRITATION,APPLICATION SITE BURNING,,APPLICATION SITE IRRITATION,,HLT_0061,,HLGT_0346,,GENERAL DISORDERS AND ADMINISTRATION SITE CONDITIONS,,GENERAL DISORDERS AND ADMINISTRATION SITE CONDITIONS,,MILD,false,,POSSIBLE,RECOVERED/RESOLVED,false,false,false,false,false,false,false,12/28/2012,2012-12-26,12/26/2012 03:00,27,27,,3
CDISCPILOT01,AE,01-701-1115,8,E12,APPLICATION SITE IRRITATION,APPLICATION SITE BURNING,,APPLICATION SITE IRRITATION,,HLT_0061,,HLGT_0346,,GENERAL DISORDERS AND ADMINISTRATION SITE CONDITIONS,,GENERAL DISORDERS AND ADMINISTRATION SITE CONDITIONS,,MODERATE,false,,PROBABLE,NOT RECOVERED/NOT RESOLVED,false,false,false,false,false,false,false,1/23/2013,2013-01-19,,51,,,7
CDISCPILOT01,AE,01-701-1115,2,E11,APPLICATION SITE PRURITUS,APPLICATION SITE ITCHING,,APPLICATION SITE PRURITUS,,HLT_0317,,HLGT_0338,,GENERAL DISORDERS AND ADMINISTRATION SITE CONDITIONS,,GENERAL DISORDERS AND ADMINISTRATION SITE CONDITIONS,,MILD,false,,PROBABLE,NOT RECOVERED/NOT RESOLVED,false,false,false,false,false,false,false,12/13/2012,2012-12-02,,3,,,0
CDISCPILOT01,AE,01-701-1115,6,E11,APPLICATION SITE PRURITUS,APPLICATION SITE ITCHING,,APPLICATION SITE PRURITUS,,HLT_0317,,HLGT_0338,,GENERAL DISORDERS AND ADMINISTRATION SITE CONDITIONS,,GENERAL DISORDERS AND ADMINISTRATION SITE CONDITIONS,,MODERATE,false,,PROBABLE,NOT RECOVERED/NOT RESOLVED,false,false,false,false,false,false,false,1/23/2013,2012-12-02,,3,,,0
CDISCPILOT01,AE,01-701-1115,7,E13,FATIGUE,FATIGUE,,FATIGUE,,HLT_0043,,HLGT_0181,,GENERAL DISORDERS AND ADMINISTRATION SITE CONDITIONS,,GENERAL DISORDERS AND ADMINISTRATION SITE CONDITIONS,,MODERATE,false,,REMOTE,NOT RECOVERED/NOT RESOLVED,false,false,false,false,false,false,false,1/23/2013,2013-01-14,,46,,,6
CDISCPILOT01,AE,01-701-1118,1,E06,COUGH,COUGH,,COUGH,,HLT_0701,,HLGT_0280,,"RESPIRATORY, THORACIC AND MEDIASTINAL DISORDERS",,"RESPIRATORY, THORACIC AND MEDIASTINAL DISORDERS",,MILD,false,,NONE,NOT RECOVERED/NOT RESOLVED,false,false,false,false,false,false,false,3/10/2014,2003,,,,,
CDISCPILOT01,AE,01-701-1130,5,E09,EYE ALLERGY,EYE ALLERGY,,EYE ALLERGY,,HLT_0256,,HLGT_0071,,EYE DISORDERS,,EYE DISORDERS,,MILD,false,,NONE,RECOVERED/RESOLVED,false,false,false,false,false,false,false,5/16/2014,2014-05-09,5/9/2014 00:00,84,84,,12
CDISCPILOT01,AE,01-701-1130,6,E10,EYE PRURITUS,EYE ITCHING,,EYE PRURITUS,,HLT_0523,,HLGT_0240,,EYE DISORDERS,,EYE DISORDERS,,MILD,false,,REMOTE,NOT RECOVERED/NOT RESOLVED,false,false,false,false,false,false,false,6/7/2014,2014-05-22,,97,,,13
CDISCPILOT01,AE,01-701-1130,4,E08,EYE SWELLING,EYES SWOLLEN,,EYE SWELLING,,HLT_0008,,HLGT_0466,,EYE DISORDERS,,EYE DISORDERS,,MILD,false,,NONE,RECOVERED/RESOLVED,false,false,false,false,false,false,false,5/16/2014,2014-05-09,5/9/2014 00:00,84,84,,12
CDISCPILOT01,AE,01-701-1130,8,E12,NASAL CONGESTION,NASAL CONGESTION,,NASAL CONGESTION,,HLT_0118,,HLGT_0549,,"RESPIRATORY, THORACIC AND MEDIASTINAL DISORDERS",,"RESPIRATORY, THORACIC AND MEDIASTINAL DISORDERS",,MILD,false,,REMOTE,NOT RECOVERED/NOT RESOLVED,false,false,false,false,false,false,false,6/7/2014,2014-05-22,,97,,,13
CDISCPILOT01,AE,01-701-1130,7,E11,PRURITUS,ITCHING BOTH HANDS,,PRURITUS,,HLT_0778,,HLGT_0695,,SKIN AND SUBCUTANEOUS TISSUE DISORDERS,,SKIN AND SUBCUTANEOUS TISSUE DISORDERS,,MILD,false,,REMOTE,NOT RECOVERED/NOT RESOLVED,false,false,false,false,false,false,false,6/7/2014,2014-05-22,,97,,,13
CDISCPILOT01,AE,01-701-1130,2,E07,PYREXIA,FEVER,,PYREXIA,,HLT_0310,,HLGT_0652,,GENERAL DISORDERS AND ADMINISTRATION SITE CONDITIONS,,GENERAL DISORDERS AND ADMINISTRATION SITE CONDITIONS,,MILD,false,,NONE,RECOVERED/RESOLVED,false,false,false,false,false,false,false,3/15/2014,2014-03-09,3/9/2014 03:00,23,23,,3
CDISCPILOT01,AE,01-701-1130,1,E06,URINARY TRACT INFECTION,URINARY TRACT INFECTION,,URINARY TRACT INFECTION,,HLT_0161,,HLGT_0093,,INFECTIONS AND INFESTATIONS,,INFECTIONS AND INFESTATIONS,,MILD,false,,NONE,NOT RECOVERED/NOT RESOLVED,false,false,false,false,false,false,false,3/15/2014,2014-03-09,3/16/2014 04:00,23,30,,3
CDISCPILOT01,AE,01-701-1130,3,E06,URINARY TRACT INFECTION,URINARY TRACT INFECTION,,URINARY TRACT INFECTION,,HLT_0161,,HLGT_0093,,INFECTIONS AND INFESTATIONS,,INFECTIONS AND INFESTATIONS,,MILD,false,,NONE,RECOVERED/RESOLVED,false,false,false,false,false,false,false,3/17/2014,2014-03-09,3/16/2014 04:00,23,30,,3
CDISCPILOT01,AE,01-701-1133,1,E04,APPLICATION SITE ERYTHEMA,APPLICATION SITE REDNESS,,APPLICATION SITE ERYTHEMA,,HLT_0617,,HLGT_0152,,GENERAL DISORDERS AND ADMINISTRATION SITE CONDITIONS,,GENERAL DISORDERS AND ADMINISTRATION SITE CONDITIONS,,MILD,false,,PROBABLE,NOT RECOVERED/NOT RESOLVED,false,false,false,false,false,false,false,1/22/2013,2012-12-27,,61,,,8
CDISCPILOT01,AE,01-701-1133,3,E04,APPLICATION SITE ERYTHEMA,APPLICATION SITE REDNESS,,APPLICATION SITE ERYTHEMA,,HLT_0617,,HLGT_0152,,GENERAL DISORDERS AND ADMINISTRATION SITE CONDITIONS,,GENERAL DISORDERS AND ADMINISTRATION SITE CONDITIONS,,MODERATE,false,,PROBABLE,NOT RECOVERED/NOT RESOLVED,false,false,false,false,false,false,false,2/18/2013,2012-12-27,,61,,,8
CDISCPILOT01,AE,01-701-1133,2,E05,APPLICATION SITE PRURITUS,APPLICATION SITE ITCHING,,APPLICATION SITE PRURITUS,,HLT_0317,,HLGT_0338,,GENERAL DISORDERS AND ADMINISTRATION SITE CONDITIONS,,GENERAL DISORDERS AND ADMINISTRATION SITE CONDITIONS,,MILD,false,,PROBABLE,NOT RECOVERED/NOT RESOLVED,false,false,false,false,false,false,false,1/22/2013,2012-12-27,,61,,,8
CDISCPILOT01,AE,01-701-1133,4,E05,APPLICATION SITE PRURITUS,APPLICATION SITE ITCHING,,APPLICATION SITE PRURITUS,,HLT_0317,,HLGT_0338,,GENERAL DISORDERS AND ADMINISTRATION SITE CONDITIONS,,GENERAL DISORDERS AND ADMINISTRATION SITE CONDITIONS,,MODERATE,false,,PROBABLE,NOT RECOVERED/NOT RESOLVED,false,false,false,false,false,false,false,2/18/2013,2012-12-27,,61,,,8
CDISCPILOT01,AE,01-701-1146,5,E12,APPLICATION SITE ERYTHEMA,APPLICATION SITE ERYTHEMA,,APPLICATION SITE ERYTHEMA,,HLT_0617,,HLGT_0152,,GENERAL DISORDERS AND ADMINISTRATION SITE CONDITIONS,,GENERAL DISORDERS AND ADMINISTRATION SITE CONDITIONS,,MILD,false,,PROBABLE,NOT RECOVERED/NOT RESOLVED,false,false,false,false,false,false,false,6/16/2013,2013-06-10,,22,,,3
CDISCPILOT01,AE,01-701-1146,7,E12,APPLICATION SITE ERYTHEMA,APPLICATION SITE ERYTHEMA,,APPLICATION SITE ERYTHEMA,,HLT_0617,,HLGT_0152,,GENERAL DISORDERS AND ADMINISTRATION SITE CONDITIONS,,GENERAL DISORDERS AND ADMINISTRATION SITE CONDITIONS,,MODERATE,false,,PROBABLE,NOT RECOVERED/NOT RESOLVED,false,false,false,false,false,false,false,6/30/2013,2013-06-10,,22,,,3
CDISCPILOT01,AE,01-701-1146,3,E10,APPLICATION SITE IRRITATION,APPLICATION SITE IRRITATION,,APPLICATION SITE IRRITATION,,HLT_0061,,HLGT_0346,,GENERAL DISORDERS AND ADMINISTRATION SITE CONDITIONS,,GENERAL DISORDERS AND ADMINISTRATION SITE CONDITIONS,,MILD,false,,PROBABLE,RECOVERED/RESOLVED,false,false,false,false,false,false,false,6/3/2013,2013-06-01,6/2/2013 00:00,13,14,,1
CDISCPILOT01,AE,01-701-1146,11,E16,APPLICATION SITE IRRITATION,APPLICATION SITE BURNING,,APPLICATION SITE IRRITATION,,HLT_0061,,HLGT_0346,,GENERAL DISORDERS AND ADMINISTRATION SITE CONDITIONS,,GENERAL DISORDERS AND ADMINISTRATION SITE CONDITIONS,,MODERATE,false,,PROBABLE,NOT RECOVERED/NOT RESOLVED,false,false,false,false,false,false,false,6/30/2013,2013-06-26,,38,,,5
CDISCPILOT01,AE,01-701-1146,9,E14,APPLICATION SITE PAIN,APPLICATION SITE PAIN,,APPLICATION SITE PAIN,,HLT_0342,,HLGT_0085,,GENERAL DISORDERS AND ADMINISTRATION SITE CONDITIONS,,GENERAL DISORDERS AND ADMINISTRATION SITE CONDITIONS,,MODERATE,false,,PROBABLE,NOT RECOVERED/NOT RESOLVED,false,false,false,false,false,false,false,6/30/2013,2013-06-22,,34,,,4
CDISCPILOT01,AE,01-701-1146,6,E13,APPLICATION SITE PRURITUS,APPLICATION SITE ITCHING,,APPLICATION SITE PRURITUS,,HLT_0317,,HLGT_0338,,GENERAL DISORDERS AND ADMINISTRATION SITE CONDITIONS,,GENERAL DISORDERS AND ADMINISTRATION SITE CONDITIONS,,MILD,false,,PROBABLE,NOT RECOVERED/NOT RESOLVED,false,false,false,false,false,false,false,6/16/2013,2013-06-10,,22,,,3
CDISCPILOT01,AE,01-701-1146,8,E13,APPLICATION SITE PRURITUS,APPLICATION SITE ITCHING,,APPLICATION SITE PRURITUS,,HLT_0317,,HLGT_0338,,GENERAL DISORDERS AND ADMINISTRATION SITE CONDITIONS,,GENERAL DISORDERS AND ADMINISTRATION SITE CONDITIONS,,MODERATE,false,,PROBABLE,NOT RECOVERED/NOT RESOLVED,false,false,false,false,false,false,false,6/30/2013,2013-06-10,,22,,,3
CDISCPILOT01,AE,01-701-1146,10,E15,APPLICATION SITE VESICLES,APPLICATION SITE VESICLES,,APPLICATION SITE VESICLES,,HLT_0180,,HLGT_0576,,GENERAL DISORDERS AND ADMINISTRATION SITE CONDITIONS,,GENERAL DISORDERS AND ADMINISTRATION SITE CONDITIONS,,MODERATE,false,,PROBABLE,NOT RECOVERED/NOT RESOLVED,false,false,false,false,false,false,false,6/30/2013,2013-06-26,,38,,,5
CDISCPILOT01,AE,01-701-1146,4,E11,FATIGUE,FATIGUE,,FATIGUE,,HLT_0043,,HLGT_0181,,GENERAL DISORDERS AND ADMINISTRATION SITE CONDITIONS,,GENERAL DISORDERS AND ADMINISTRATION SITE CONDITIONS,,MILD,false,,POSSIBLE,NOT RECOVERED/NOT RESOLVED,false,false,false,false,false,false,false,6/3/2013,2013-06-03,,15,,,2
CDISCPILOT01,AE,01-701-1146,1,E09,RASH,RASH,,RASH,,HLT_0762,,HLGT_0198,,SKIN AND SUBCUTANEOUS TISSUE DISORDERS,,SKIN AND SUBCUTANEOUS TISSUE DISORDERS,,MILD,false,,NONE,NOT RECOVERED/NOT RESOLVED,false,false,false,false,false,false,false,5/18/2013,2013-05-16,6/2/2013 00:00,-4,14,,-1
CDISCPILOT01,AE,01-701-1146,2,E09,RASH,RASH,,RASH,,HLT_0762,,HLGT_0198,,SKIN AND SUBCUTANEOUS TISSUE DISORDERS,,SKIN AND SUBCUTANEOUS TISSUE DISORDERS,,MILD,false,,NONE,RECOVERED/RESOLVED,false,false,false,false,false,false,false,6/3/2013,2013-05-16,6/2/2013 00:00,-4,14,,-1
CDISCPILOT01,AE,01-701-1148,10,E27,ACTINIC KERATOSIS,ACTINIC KERATOSIS,,ACTINIC KERATOSIS,,HLT_0609,,HLGT_0490,,SKIN AND SUBCUTANEOUS TISSUE DISORDERS,,SKIN AND SUBCUTANEOUS TISSUE DISORDERS,,MILD,false,,NONE,NOT RECOVERED/NOT RESOLVED,false,false,false,false,false,false,false,2/20/2014,2014-02-12,,174,,,24
CDISCPILOT01,AE,01-701-1148,1,E20,APPLICATION SITE ERYTHEMA,APPLICATION SITE REDNESS,,APPLICATION SITE ERYTHEMA,,HLT_0617,,HLGT_0152,,GENERAL DISORDERS AND ADMINISTRATION SITE CONDITIONS,,GENERAL DISORDERS AND ADMINISTRATION SITE CONDITIONS,,MILD,false,,PROBABLE,NOT RECOVERED/NOT RESOLVED,false,false,false,false,false,false,false,9/5/2013,2013-08-25,,3,,,0
CDISCPILOT01,AE,01-701-1148,2,E21,APPLICATION SITE PRURITUS,APPLICATION SITE ITCHING,,APPLICATION SITE PRURITUS,,HLT_0317,,HLGT_0338,,GENERAL DISORDERS AND ADMINISTRATION SITE CONDITIONS,,GENERAL DISORDERS AND ADMINISTRATION SITE CONDITIONS,,MILD,false,,PROBABLE,NOT RECOVERED/NOT RESOLVED,false,false,false,false,false,false,false,9/5/2013,2013-08-25,,3,,,0
CDISCPILOT01,AE,01-701-1148,6,E25,CALCULUS URETHRAL,URETHRAL CALCULUS,,CALCULUS URETHRAL,,HLT_0550,,HLGT_0414,,RENAL AND URINARY DISORDERS,,RENAL AND URINARY DISORDERS,,MODERATE,false,,NONE,RECOVERED/RESOLVED,false,false,false,false,false,false,false,1/10/2014,2013-12-17,12/17/2013 03:00,117,117,,16
CDISCPILOT01,AE,01-701-1148,9,E26,DEPRESSED MOOD,DEPRESSED MOOD,,DEPRESSED MOOD,,HLT_0784,,HLGT_0122,,PSYCHIATRIC DISORDERS,,PSYCHIATRIC DISORDERS,,MODERATE,false,,NONE,NOT RECOVERED/NOT RESOLVED,false,false,false,false,false,false,false,2/8/2014,2013-07-29,,30,31,,4
CDISCPILOT01,AE,01-701-1148,8,E03,DYSPEPSIA,INDIGESTION,,DYSPEPSIA,,HLT_0244,,HLGT_0716,,GASTROINTESTINAL DISORDERS,,GASTROINTESTINAL DISORDERS,,MODERATE,false,,NONE,NOT RECOVERED/NOT RESOLVED,false,false,false,false,false,false,false,2/8/2014,12-Feb,,,,,
CDISCPILOT01,AE,01-701-1148,7,E28,EPISTAXIS,NOSE BLEED,,EPISTAXIS,,HLT_0386,,HLGT_0577,,"RESPIRATORY, THORACIC AND MEDIASTINAL DISORDERS",,"RESPIRATORY, THORACIC AND MEDIASTINAL DISORDERS",,MILD,false,,NONE,RECOVERED/RESOLVED,false,false,false,false,false,false,false,1/10/2014,2014-01-03,1/3/2014 03:00,134,134,,19
CDISCPILOT01,AE,01-701-1148,5,E24,FLANK PAIN,FLANK PAIN,,FLANK PAIN,,HLT_0484,,HLGT_0543,,MUSCULOSKELETAL AND CONNECTIVE TISSUE DISORDERS,,MUSCULOSKELETAL AND CONNECTIVE TISSUE DISORDERS,,MODERATE,false,,NONE,RECOVERED/RESOLVED,false,false,false,false,false,false,false,1/10/2014,2013-12-15,12/17/2013 03:00,115,117,,16
CDISCPILOT01,AE,01-701-1148,3,E23,LOWER RESPIRATORY TRACT INFECTION,CHEST COLD,,LOWER RESPIRATORY TRACT INFECTION,,HLT_0052,,HLGT_0217,,INFECTIONS AND INFESTATIONS,,INFECTIONS AND INFESTATIONS,,MODERATE,false,,NONE,NOT RECOVERED/NOT RESOLVED,false,false,false,false,false,false,false,10/18/2013,2013-10-12,11/10/2013 03:00,51,80,,7
CDISCPILOT01,AE,01-701-1148,4,E23,LOWER RESPIRATORY TRACT INFECTION,CHEST COLD,,LOWER RESPIRATORY TRACT INFECTION,,HLT_0052,,HLGT_0217,,INFECTIONS AND INFESTATIONS,,INFECTIONS AND INFESTATIONS,,MODERATE,false,,NONE,RECOVERED/RESOLVED,false,false,false,false,false,false,false,11/17/2013,2013-10-12,11/10/2013 03:00,51,80,,7
CDISCPILOT01,AE,01-701-1153,1,E06,INCREASED APPETITE,INCREASED APPETITE,,INCREASED APPETITE,,HLT_0566,,HLGT_0769,,METABOLISM AND NUTRITION DISORDERS,,METABOLISM AND NUTRITION DISORDERS,,MILD,false,,POSSIBLE,NOT RECOVERED/NOT RESOLVED,false,false,false,false,false,false,false,10/19/2013,2013-10-13,11/6/2013 03:00,21,45,,3
CDISCPILOT01,AE,01-701-1153,2,E06,INCREASED APPETITE,INCREASED APPETITE,,INCREASED APPETITE,,HLT_0566,,HLGT_0769,,METABOLISM AND NUTRITION DISORDERS,,METABOLISM AND NUTRITION DISORDERS,,MILD,false,,POSSIBLE,RECOVERED/RESOLVED,false,false,false,false,false,false,false,11/18/2013,2013-10-13,11/6/2013 03:00,21,45,,3
CDISCPILOT01,AE,01-701-1180,9,E07,APPLICATION SITE ERYTHEMA,APPLICATION SITE ERYTHEMA,,APPLICATION SITE ERYTHEMA,,HLT_0617,,HLGT_0152,,GENERAL DISORDERS AND ADMINISTRATION SITE CONDITIONS,,GENERAL DISORDERS AND ADMINISTRATION SITE CONDITIONS,,MODERATE,false,,POSSIBLE,NOT RECOVERED/NOT RESOLVED,false,false,false,false,false,false,false,3/23/2013,2013-03-19,,36,,,5
CDISCPILOT01,AE,01-701-1180,8,E06,APPLICATION SITE PRURITUS,APPLICATION SITE ITCHING,,APPLICATION SITE PRURITUS,,HLT_0317,,HLGT_0338,,GENERAL DISORDERS AND ADMINISTRATION SITE CONDITIONS,,GENERAL DISORDERS AND ADMINISTRATION SITE CONDITIONS,,MODERATE,false,,POSSIBLE,NOT RECOVERED/NOT RESOLVED,false,false,false,false,false,false,false,3/23/2013,2013-03-19,,36,,,5
CDISCPILOT01,AE,01-701-1180,7,E05,APPLICATION SITE VESICLES,APPLICATION SITE BLISTER,,APPLICATION SITE VESICLES,,HLT_0180,,HLGT_0576,,GENERAL DISORDERS AND ADMINISTRATION SITE CONDITIONS,,GENERAL DISORDERS AND ADMINISTRATION SITE CONDITIONS,,MODERATE,false,,POSSIBLE,NOT RECOVERED/NOT RESOLVED,false,false,false,false,false,false,false,3/23/2013,2013-03-19,,36,,,5
CDISCPILOT01,AE,01-701-1180,4,E04,HEADACHE,HEADACHE,,HEADACHE,,HLT_0064,,HLGT_0344,,NERVOUS SYSTEM DISORDERS,,NERVOUS SYSTEM DISORDERS,,MODERATE,false,,NONE,NOT RECOVERED/NOT RESOLVED,false,false,false,false,false,false,false,3/11/2013,2002,,,,,
CDISCPILOT01,AE,01-701-1180,3,E02,MICTURITION URGENCY,URINARY URGENCY,,MICTURITION URGENCY,,HLT_0294,,HLGT_0483,,RENAL AND URINARY DISORDERS,,RENAL AND URINARY DISORDERS,,MILD,false,,POSSIBLE,NOT RECOVERED/NOT RESOLVED,false,false,false,false,false,false,false,2/25/2013,2013-02-15,3/19/2013 04:00,4,36,,0
CDISCPILOT01,AE,01-701-1180,6,E02,MICTURITION URGENCY,URINARY URGENCY,,MICTURITION URGENCY,,HLT_0294,,HLGT_0483,,RENAL AND URINARY DISORDERS,,RENAL AND URINARY DISORDERS,,MILD,false,,POSSIBLE,RECOVERED/RESOLVED,false,false,false,false,false,false,false,3/23/2013,2013-02-15,3/19/2013 04:00,4,36,,0
CDISCPILOT01,AE,01-701-1180,5,E03,NASOPHARYNGITIS,COLD,,NASOPHARYNGITIS,,HLT_0036,,HLGT_0709,,INFECTIONS AND INFESTATIONS,,INFECTIONS AND INFESTATIONS,,MILD,false,,NONE,RECOVERED/RESOLVED,false,false,false,false,false,false,false,3/11/2013,2013-03-06,3/7/2013 03:00,23,24,,3
CDISCPILOT01,AE,01-701-1180,1,E01,VOMITING,VOMITING,,VOMITING,,HLT_0016,,HLGT_0350,,GASTROINTESTINAL DISORDERS,,GASTROINTESTINAL DISORDERS,,MILD,false,,NONE,NOT RECOVERED/NOT RESOLVED,false,false,false,false,false,false,false,2/12/2013,2013-02-12,2/12/2013 03:00,1,1,,0
CDISCPILOT01,AE,01-701-1180,2,E01,VOMITING,VOMITING,,VOMITING,,HLT_0016,,HLGT_0350,,GASTROINTESTINAL DISORDERS,,GASTROINTESTINAL DISORDERS,,MILD,false,,NONE,RECOVERED/RESOLVED,false,false,false,false,false,false,false,2/25/2013,2013-02-12,2/12/2013 03:00,1,1,,0
CDISCPILOT01,AE,01-701-1181,1,E16,AGITATION,AGITATION,,AGITATION,,HLT_0140,,HLGT_0170,,PSYCHIATRIC DISORDERS,,PSYCHIATRIC DISORDERS,,MODERATE,false,,NONE,RECOVERED/RESOLVED,false,false,false,false,false,false,false,12/12/2013,2013-12-09,12/9/2013 03:00,5,5,,0
CDISCPILOT01,AE,01-701-1188,7,E09,APPLICATION SITE URTICARIA,APPLICATION SITE URTICARIA,,APPLICATION SITE URTICARIA,,HLT_0196,,HLGT_0233,,GENERAL DISORDERS AND ADMINISTRATION SITE CONDITIONS,,GENERAL DISORDERS AND ADMINISTRATION SITE CONDITIONS,,MILD,false,,PROBABLE,NOT RECOVERED/NOT RESOLVED,false,false,false,false,false,false,false,3/25/2013,2013-03-21,,35,,,5
CDISCPILOT01,AE,01-701-1188,1,E04,ERYTHEMA,ERYTHEMA,,ERYTHEMA,,HLT_0284,,HLGT_0192,,SKIN AND SUBCUTANEOUS TISSUE DISORDERS,,SKIN AND SUBCUTANEOUS TISSUE DISORDERS,,MILD,false,,PROBABLE,NOT RECOVERED/NOT RESOLVED,false,false,false,false,false,false,false,3/2/2013,2013-02-16,,2,,,0
CDISCPILOT01,AE,01-701-1188,3,E04,ERYTHEMA,ERYTHEMA,,ERYTHEMA,,HLT_0284,,HLGT_0192,,SKIN AND SUBCUTANEOUS TISSUE DISORDERS,,SKIN AND SUBCUTANEOUS TISSUE DISORDERS,,MODERATE,false,,PROBABLE,NOT RECOVERED/NOT RESOLVED,false,false,false,false,false,false,false,3/16/2013,2013-02-16,,2,,,0
CDISCPILOT01,AE,01-701-1188,2,E05,PRURITUS,ITCHING,,PRURITUS,,HLT_0778,,HLGT_0695,,SKIN AND SUBCUTANEOUS TISSUE DISORDERS,,SKIN AND SUBCUTANEOUS TISSUE DISORDERS,,MILD,false,,PROBABLE,NOT RECOVERED/NOT RESOLVED,false,false,false,false,false,false,false,3/2/2013,2013-02-16,,2,,,0
CDISCPILOT01,AE,01-701-1188,4,E05,PRURITUS,ITCHING,,PRURITUS,,HLT_0778,,HLGT_0695,,SKIN AND SUBCUTANEOUS TISSUE DISORDERS,,SKIN AND SUBCUTANEOUS TISSUE DISORDERS,,MODERATE,false,,PROBABLE,NOT RECOVERED/NOT RESOLVED,false,false,false,false,false,false,false,3/16/2013,2013-02-16,,2,,,0
CDISCPILOT01,AE,01-701-1188,5,E06,URTICARIA,WELTS,,URTICARIA,,HLT_0420,,HLGT_0705,,SKIN AND SUBCUTANEOUS TISSUE DISORDERS,,SKIN AND SUBCUTANEOUS TISSUE DISORDERS,,MILD,false,,PROBABLE,NOT RECOVERED/NOT RESOLVED,false,false,false,false,false,false,false,3/16/2013,2013-03-04,,18,,,2
CDISCPILOT01,AE,01-701-1188,6,E06,URTICARIA,WELTS,,URTICARIA,,HLT_0420,,HLGT_0705,,SKIN AND SUBCUTANEOUS TISSUE DISORDERS,,SKIN AND SUBCUTANEOUS TISSUE DISORDERS,,MODERATE,false,,PROBABLE,NOT RECOVERED/NOT RESOLVED,false,false,false,false,false,false,false,3/25/2013,2013-03-04,,18,,,2
CDISCPILOT01,AE,01-701-1188,8,E10,URTICARIA,WELTS,,URTICARIA,,HLT_0420,,HLGT_0705,,SKIN AND SUBCUTANEOUS TISSUE DISORDERS,,SKIN AND SUBCUTANEOUS TISSUE DISORDERS,,MILD,false,,PROBABLE,NOT RECOVERED/NOT RESOLVED,false,false,false,false,false,false,false,3/25/2013,2013-03-21,,35,,,5
CDISCPILOT01,AE,01-701-1192,13,E13,APPLICATION SITE ERYTHEMA,APPLICATION SITE REDNESS,,APPLICATION SITE ERYTHEMA,,HLT_0617,,HLGT_0152,,GENERAL DISORDERS AND ADMINISTRATION SITE CONDITIONS,,GENERAL DISORDERS AND ADMINISTRATION SITE CONDITIONS,,MILD,false,,PROBABLE,NOT RECOVERED/NOT RESOLVED,false,false,false,false,false,false,false,12/13/2012,2012-12-05,,137,,,19
CDISCPILOT01,AE,01-701-1192,12,E12,APPLICATION SITE IRRITATION,APPLICATION SITE BURNING,,APPLICATION SITE IRRITATION,,HLT_0061,,HLGT_0346,,GENERAL DISORDERS AND ADMINISTRATION SITE CONDITIONS,,GENERAL DISORDERS AND ADMINISTRATION SITE CONDITIONS,,MILD,false,,PROBABLE,NOT RECOVERED/NOT RESOLVED,false,false,false,false,false,false,false,12/13/2012,2012-12-05,12/16/2012 03:00,137,148,,19
CDISCPILOT01,AE,01-701-1192,15,E12,APPLICATION SITE IRRITATION,APPLICATION SITE BURNING,,APPLICATION SITE IRRITATION,,HLT_0061,,HLGT_0346,,GENERAL DISORDERS AND ADMINISTRATION SITE CONDITIONS,,GENERAL DISORDERS AND ADMINISTRATION SITE CONDITIONS,,MILD,false,,PROBABLE,RECOVERED/RESOLVED,false,false,false,false,false,false,false,1/11/2013,2012-12-05,12/16/2012 03:00,137,148,,19
CDISCPILOT01,AE,01-701-1192,14,E14,APPLICATION SITE PRURITUS,APPLICATION SITE ITCHING,,APPLICATION SITE PRURITUS,,HLT_0317,,HLGT_0338,,GENERAL DISORDERS AND ADMINISTRATION SITE CONDITIONS,,GENERAL DISORDERS AND ADMINISTRATION SITE CONDITIONS,,MILD,false,,PROBABLE,NOT RECOVERED/NOT RESOLVED,false,false,false,false,false,false,false,12/13/2012,2012-12-05,,137,,,19
CDISCPILOT01,AE,01-701-1192,4,E01,COUGH,COUGH,,COUGH,,HLT_0701,,HLGT_0280,,"RESPIRATORY, THORACIC AND MEDIASTINAL DISORDERS",,"RESPIRATORY, THORACIC AND MEDIASTINAL DISORDERS",,MODERATE,false,,NONE,NOT RECOVERED/NOT RESOLVED,false,false,false,false,false,false,false,9/23/2012,10-Jun,,,,,
CDISCPILOT01,AE,01-701-1192,9,E01,COUGH,COUGH,,COUGH,,HLT_0701,,HLGT_0280,,"RESPIRATORY, THORACIC AND MEDIASTINAL DISORDERS",,"RESPIRATORY, THORACIC AND MEDIASTINAL DISORDERS",,MILD,false,,NONE,NOT RECOVERED/NOT RESOLVED,false,false,false,false,false,false,false,10/14/2012,10-Jun,,,,,
CDISCPILOT01,AE,01-701-1192,3,E09,ERYTHEMA,ERYTHEMA FACIAL,,ERYTHEMA,,HLT_0284,,HLGT_0192,,SKIN AND SUBCUTANEOUS TISSUE DISORDERS,,SKIN AND SUBCUTANEOUS TISSUE DISORDERS,,MILD,false,,NONE,NOT RECOVERED/NOT RESOLVED,false,false,false,false,false,false,false,8/7/2012,2012-08-07,9/14/2012 00:00,17,55,,2
CDISCPILOT01,AE,01-701-1192,6,E09,ERYTHEMA,ERYTHEMA FACIAL,,ERYTHEMA,,HLT_0284,,HLGT_0192,,SKIN AND SUBCUTANEOUS TISSUE DISORDERS,,SKIN AND SUBCUTANEOUS TISSUE DISORDERS,,MILD,false,,NONE,RECOVERED/RESOLVED,false,false,false,false,false,false,false,9/23/2012,2012-08-07,9/14/2012 00:00,17,55,,2
CDISCPILOT01,AE,01-701-1192,8,E11,MUSCULAR WEAKNESS,MUSCULAR WEAKNESS,,MUSCULAR WEAKNESS,,HLT_0444,,HLGT_0211,,MUSCULOSKELETAL AND CONNECTIVE TISSUE DISORDERS,,MUSCULOSKELETAL AND CONNECTIVE TISSUE DISORDERS,,MODERATE,false,,NONE,NOT RECOVERED/NOT RESOLVED,false,false,false,false,false,false,false,9/23/2012,2012-09-07,9/30/2012 00:00,48,71,,6
CDISCPILOT01,AE,01-701-1192,11,E11,MUSCULAR WEAKNESS,MUSCULAR WEAKNESS,,MUSCULAR WEAKNESS,,HLT_0444,,HLGT_0211,,MUSCULOSKELETAL AND CONNECTIVE TISSUE DISORDERS,,MUSCULOSKELETAL AND CONNECTIVE TISSUE DISORDERS,,MODERATE,false,,NONE,RECOVERED/RESOLVED,false,false,false,false,false,false,false,10/14/2012,2012-09-07,9/30/2012 00:00,48,71,,6
CDISCPILOT01,AE,01-701-1192,1,E06,NASAL MUCOSA BIOPSY,NASAL MUCOSA BIOPSY,,NASAL MUCOSA BIOPSY,,HLT_0680,,HLGT_0396,,INVESTIGATIONS,,INVESTIGATIONS,,MILD,false,,NONE,RECOVERED/RESOLVED,false,false,false,false,false,false,false,8/7/2012,2012-08-03,8/3/2012 00:00,13,13,,1
CDISCPILOT01,AE,01-701-1192,7,E10,PNEUMONIA,PNEUMONIA,,PNEUMONIA,,HLT_0251,,HLGT_0671,,INFECTIONS AND INFESTATIONS,,INFECTIONS AND INFESTATIONS,,MODERATE,false,,NONE,NOT RECOVERED/NOT RESOLVED,false,false,false,false,true,false,false,9/23/2012,2012-09-07,10/6/2012 00:00,48,77,,6
CDISCPILOT01,AE,01-701-1192,10,E10,PNEUMONIA,PNEUMONIA,,PNEUMONIA,,HLT_0251,,HLGT_0671,,INFECTIONS AND INFESTATIONS,,INFECTIONS AND INFESTATIONS,,MODERATE,false,,NONE,RECOVERED/RESOLVED,false,false,false,false,true,false,false,10/14/2012,2012-09-07,10/6/2012 00:00,48,77,,6
CDISCPILOT01,AE,01-701-1192,2,E08,SECRETION DISCHARGE,SECRETION DISCHARGE,,SECRETION DISCHARGE,,HLT_0683,,HLGT_0575,,GENERAL DISORDERS AND ADMINISTRATION SITE CONDITIONS,,GENERAL DISORDERS AND ADMINISTRATION SITE CONDITIONS,,MILD,false,,NONE,NOT RECOVERED/NOT RESOLVED,false,false,false,false,false,false,false,8/7/2012,2012-08-07,9/14/2012 00:00,17,55,,2
CDISCPILOT01,AE,01-701-1192,5,E08,SECRETION DISCHARGE,SECRETION DISCHARGE,,SECRETION DISCHARGE,,HLT_0683,,HLGT_0575,,GENERAL DISORDERS AND ADMINISTRATION SITE CONDITIONS,,GENERAL DISORDERS AND ADMINISTRATION SITE CONDITIONS,,MILD,false,,NONE,RECOVERED/RESOLVED,false,false,false,false,false,false,false,9/23/2012,2012-08-07,9/14/2012 00:00,17,55,,2
CDISCPILOT01,AE,01-701-1203,1,E05,EYE LASER SURGERY,EYE LASER SURGERY,,EYE LASER SURGERY,,HLT_0355,,HLGT_0189,,SURGICAL AND MEDICAL PROCEDURES,,SURGICAL AND MEDICAL PROCEDURES,,MILD,false,,NONE,RECOVERED/RESOLVED,false,false,false,false,false,false,false,3/30/2013,2013-03-21,3/21/2013 04:00,48,48,,6
CDISCPILOT01,AE,01-701-1211,5,E05,APPLICATION SITE ERYTHEMA,APPLICATION SITE REDNESS,,APPLICATION SITE ERYTHEMA,,HLT_0617,,HLGT_0152,,GENERAL DISORDERS AND ADMINISTRATION SITE CONDITIONS,,GENERAL DISORDERS AND ADMINISTRATION SITE CONDITIONS,,MILD,false,,POSSIBLE,NOT RECOVERED/NOT RESOLVED,false,false,false,false,false,false,false,12/11/2012,2012-11-29,,15,,,2
CDISCPILOT01,AE,01-701-1211,1,E08,APPLICATION SITE PRURITUS,APPLICATION SITE ITCHING,,APPLICATION SITE PRURITUS,,HLT_0317,,HLGT_0338,,GENERAL DISORDERS AND ADMINISTRATION SITE CONDITIONS,,GENERAL DISORDERS AND ADMINISTRATION SITE CONDITIONS,,MILD,false,,POSSIBLE,NOT RECOVERED/NOT RESOLVED,false,false,false,false,false,false,false,11/28/2012,2012-11-16,,2,,,0
CDISCPILOT01,AE,01-701-1211,7,E12,CONFUSIONAL STATE,CONFUSION,,CONFUSIONAL STATE,,HLT_0642,,HLGT_0329,,PSYCHIATRIC DISORDERS,,PSYCHIATRIC DISORDERS,,MODERATE,false,,NONE,NOT RECOVERED/NOT RESOLVED,false,false,false,false,false,false,false,1/14/2013,2013-01-11,,58,,,8
CDISCPILOT01,AE,01-701-1211,8,E13,DYSPNOEA,SHORTNESS OF BREATH,,DYSPNOEA,,HLT_0296,,HLGT_0255,,"RESPIRATORY, THORACIC AND MEDIASTINAL DISORDERS",,"RESPIRATORY, THORACIC AND MEDIASTINAL DISORDERS",,MODERATE,false,,NONE,NOT RECOVERED/NOT RESOLVED,false,false,false,false,false,false,false,1/14/2013,2013-01-11,,58,,,8
CDISCPILOT01,AE,01-701-1211,4,E09,INCONTINENCE,INCONTINENCE,,INCONTINENCE,,HLT_0560,,HLGT_0503,,RENAL AND URINARY DISORDERS,,RENAL AND URINARY DISORDERS,,MILD,false,,NONE,NOT RECOVERED/NOT RESOLVED,false,false,false,false,false,false,false,11/28/2012,2012-11-22,,8,,,1
CDISCPILOT01,AE,01-701-1211,2,E03,JOINT DISLOCATION,SHOULDER DISLOCATION,,JOINT DISLOCATION,,HLT_0035,,HLGT_0227,,"INJURY, POISONING AND PROCEDURAL COMPLICATIONS",,"INJURY, POISONING AND PROCEDURAL COMPLICATIONS",,MODERATE,false,,NONE,RECOVERED/RESOLVED,false,false,false,false,false,false,false,11/28/2012,2012-11-21,11/21/2012 03:00,7,7,,1
CDISCPILOT01,AE,01-701-1211,3,E04,SHOULDER PAIN,SHOULDER PAIN,,SHOULDER PAIN,,HLT_0527,,HLGT_0288,,MUSCULOSKELETAL AND CONNECTIVE TISSUE DISORDERS,,MUSCULOSKELETAL AND CONNECTIVE TISSUE DISORDERS,,MILD,false,,NONE,NOT RECOVERED/NOT RESOLVED,false,false,false,false,false,false,false,11/28/2012,2012-11-21,,7,,,1
CDISCPILOT01,AE,01-701-1211,6,E06,SKIN LACERATION,LACERATION OF FACE,,SKIN LACERATION,,HLT_0075,,HLGT_0118,,"INJURY, POISONING AND PROCEDURAL COMPLICATIONS",,"INJURY, POISONING AND PROCEDURAL COMPLICATIONS",,MILD,false,,NONE,NOT RECOVERED/NOT RESOLVED,false,false,false,false,false,false,false,12/11/2012,2012-12-09,,25,,,3
CDISCPILOT01,AE,01-701-1211,9,E11,SUDDEN DEATH,SUDDEN DEATH,,SUDDEN DEATH,,HLT_0142,,HLGT_0272,,GENERAL DISORDERS AND ADMINISTRATION SITE CONDITIONS,,GENERAL DISORDERS AND ADMINISTRATION SITE CONDITIONS,,SEVERE,false,,NONE,FATAL,false,false,false,true,false,true,false,1/14/2013,2013-01-14,1/14/2013 03:00,61,61,,8
CDISCPILOT01,AE,01-701-1239,4,E13,APPLICATION SITE IRRITATION,APPLICATION SITE IRRITATION,,APPLICATION SITE IRRITATION,,HLT_0061,,HLGT_0346,,GENERAL DISORDERS AND ADMINISTRATION SITE CONDITIONS,,GENERAL DISORDERS AND ADMINISTRATION SITE CONDITIONS,,MILD,false,,PROBABLE,NOT RECOVERED/NOT RESOLVED,false,false,false,false,false,false,false,1/25/2014,2014-01-20,2/8/2014 03:00,10,29,,1
CDISCPILOT01,AE,01-701-1239,5,E13,APPLICATION SITE IRRITATION,APPLICATION SITE IRRITATION,,APPLICATION SITE IRRITATION,,HLT_0061,,HLGT_0346,,GENERAL DISORDERS AND ADMINISTRATION SITE CONDITIONS,,GENERAL DISORDERS AND ADMINISTRATION SITE CONDITIONS,,MILD,false,,PROBABLE,RECOVERED/RESOLVED,false,false,false,false,false,false,false,2/10/2014,2014-01-20,2/8/2014 03:00,10,29,,1
CDISCPILOT01,AE,01-701-1239,1,E11,ERYTHEMA,ERYTHEMA,,ERYTHEMA,,HLT_0284,,HLGT_0192,,SKIN AND SUBCUTANEOUS TISSUE DISORDERS,,SKIN AND SUBCUTANEOUS TISSUE DISORDERS,,MILD,false,,POSSIBLE,NOT RECOVERED/NOT RESOLVED,false,false,false,false,false,false,false,1/25/2014,2014-01-12,,2,,,0
CDISCPILOT01,AE,01-701-1239,6,E11,ERYTHEMA,ERYTHEMA,,ERYTHEMA,,HLT_0284,,HLGT_0192,,SKIN AND SUBCUTANEOUS TISSUE DISORDERS,,SKIN AND SUBCUTANEOUS TISSUE DISORDERS,,MODERATE,false,,POSSIBLE,NOT RECOVERED/NOT RESOLVED,false,false,false,false,false,false,false,2/19/2014,2014-01-12,,2,,,0
CDISCPILOT01,AE,01-701-1239,9,E16,FATIGUE,FATIGUE,,FATIGUE,,HLT_0043,,HLGT_0181,,GENERAL DISORDERS AND ADMINISTRATION SITE CONDITIONS,,GENERAL DISORDERS AND ADMINISTRATION SITE CONDITIONS,,MILD,false,,REMOTE,NOT RECOVERED/NOT RESOLVED,false,false,false,false,false,false,false,4/2/2014,14-Mar,,,,,
CDISCPILOT01,AE,01-701-1239,10,E17,HORDEOLUM,STYE,,HORDEOLUM,,HLT_0604,,HLGT_0290,,INFECTIONS AND INFESTATIONS,,INFECTIONS AND INFESTATIONS,,MILD,false,,NONE,NOT RECOVERED/NOT RESOLVED,false,false,false,false,false,false,false,5/2/2014,14-Apr,,,,,
CDISCPILOT01,AE,01-701-1239,3,E12,PRURITUS,ITCHING,,PRURITUS,,HLT_0778,,HLGT_0695,,SKIN AND SUBCUTANEOUS TISSUE DISORDERS,,SKIN AND SUBCUTANEOUS TISSUE DISORDERS,,MILD,false,,POSSIBLE,NOT RECOVERED/NOT RESOLVED,false,false,false,false,false,false,false,1/25/2014,2014-01-13,,3,,,0
CDISCPILOT01,AE,01-701-1239,2,E15,SKIN ODOUR ABNORMAL,SKIN ODOR ABNORMAL,,SKIN ODOUR ABNORMAL,,HLT_0510,,HLGT_0184,,SKIN AND SUBCUTANEOUS TISSUE DISORDERS,,SKIN AND SUBCUTANEOUS TISSUE DISORDERS,,MILD,false,,REMOTE,NOT RECOVERED/NOT RESOLVED,false,false,false,false,false,false,false,1/25/2014,2014-01-12,,2,,,0
CDISCPILOT01,AE,01-701-1239,7,E14,UPPER RESPIRATORY TRACT INFECTION,UPPER RESPIRATORY INFECTION,,UPPER RESPIRATORY TRACT INFECTION,,HLT_0520,,HLGT_0489,,INFECTIONS AND INFESTATIONS,,INFECTIONS AND INFESTATIONS,,MILD,false,,NONE,NOT RECOVERED/NOT RESOLVED,false,false,false,false,false,false,false,3/6/2014,2014-02-20,3/12/2014 04:00,41,61,,5
CDISCPILOT01,AE,01-701-1239,8,E14,UPPER RESPIRATORY TRACT INFECTION,UPPER RESPIRATORY INFECTION,,UPPER RESPIRATORY TRACT INFECTION,,HLT_0520,,HLGT_0489,,INFECTIONS AND INFESTATIONS,,INFECTIONS AND INFESTATIONS,,MILD,false,,NONE,RECOVERED/RESOLVED,false,false,false,false,false,false,false,4/2/2014,2014-02-20,3/12/2014 04:00,41,61,,5
CDISCPILOT01,AE,01-701-1275,7,E09,COUGH,COUGH,,COUGH,,HLT_0701,,HLGT_0280,,"RESPIRATORY, THORACIC AND MEDIASTINAL DISORDERS",,"RESPIRATORY, THORACIC AND MEDIASTINAL DISORDERS",,MILD,false,,NONE,NOT RECOVERED/NOT RESOLVED,false,false,false,false,false,false,false,3/22/2014,2014-03-12,3/27/2014 04:00,34,49,,4
CDISCPILOT01,AE,01-701-1275,9,E09,COUGH,COUGH,,COUGH,,HLT_0701,,HLGT_0280,,"RESPIRATORY, THORACIC AND MEDIASTINAL DISORDERS",,"RESPIRATORY, THORACIC AND MEDIASTINAL DISORDERS",,MILD,false,,NONE,RECOVERED/RESOLVED,false,false,false,false,false,false,false,4/5/2014,2014-03-12,3/27/2014 04:00,34,49,,4
CDISCPILOT01,AE,01-701-1275,3,E06,ERYTHEMA,ERYTHEMA,,ERYTHEMA,,HLT_0284,,HLGT_0192,,SKIN AND SUBCUTANEOUS TISSUE DISORDERS,,SKIN AND SUBCUTANEOUS TISSUE DISORDERS,,MILD,false,,POSSIBLE,NOT RECOVERED/NOT RESOLVED,false,false,false,false,false,false,false,3/7/2014,2014-02-24,6/12/2014 00:00,18,126,,2
CDISCPILOT01,AE,01-701-1275,12,E06,ERYTHEMA,ERYTHEMA,,ERYTHEMA,,HLT_0284,,HLGT_0192,,SKIN AND SUBCUTANEOUS TISSUE DISORDERS,,SKIN AND SUBCUTANEOUS TISSUE DISORDERS,,MILD,false,,POSSIBLE,RECOVERED/RESOLVED,false,false,false,false,false,false,false,6/14/2014,2014-02-24,6/12/2014 00:00,18,126,,2
CDISCPILOT01,AE,01-701-1275,8,E10,NASAL CONGESTION,NASAL CONGESTION,,NASAL CONGESTION,,HLT_0118,,HLGT_0549,,"RESPIRATORY, THORACIC AND MEDIASTINAL DISORDERS",,"RESPIRATORY, THORACIC AND MEDIASTINAL DISORDERS",,MILD,false,,NONE,NOT RECOVERED/NOT RESOLVED,false,false,false,false,false,false,false,3/22/2014,2014-03-12,3/27/2014 04:00,34,49,,4
CDISCPILOT01,AE,01-701-1275,10,E10,NASAL CONGESTION,NASAL CONGESTION,,NASAL CONGESTION,,HLT_0118,,HLGT_0549,,"RESPIRATORY, THORACIC AND MEDIASTINAL DISORDERS",,"RESPIRATORY, THORACIC AND MEDIASTINAL DISORDERS",,MILD,false,,NONE,RECOVERED/RESOLVED,false,false,false,false,false,false,false,4/5/2014,2014-03-12,3/27/2014 04:00,34,49,,4
CDISCPILOT01,AE,01-701-1275,1,E04,NAUSEA,NAUSEA,,NAUSEA,,HLT_0742,,HLGT_0326,,GASTROINTESTINAL DISORDERS,,GASTROINTESTINAL DISORDERS,,MILD,false,,POSSIBLE,NOT RECOVERED/NOT RESOLVED,false,false,false,false,false,false,false,2/22/2014,2014-02-13,6/3/2014 00:00,7,117,,1
CDISCPILOT01,AE,01-701-1275,11,E04,NAUSEA,NAUSEA,,NAUSEA,,HLT_0742,,HLGT_0326,,GASTROINTESTINAL DISORDERS,,GASTROINTESTINAL DISORDERS,,MILD,false,,POSSIBLE,RECOVERED/RESOLVED,false,false,false,false,false,false,false,6/14/2014,2014-02-13,6/3/2014 00:00,7,117,,1
CDISCPILOT01,AE,01-701-1275,5,E08,PAROSMIA,STRANGE SMELL SENSATION,,PAROSMIA,,HLT_0258,,HLGT_0471,,NERVOUS SYSTEM DISORDERS,,NERVOUS SYSTEM DISORDERS,,MILD,false,,POSSIBLE,NOT RECOVERED/NOT RESOLVED,false,false,false,false,false,false,false,3/7/2014,2014-02-24,6/3/2014 00:00,18,117,,2
CDISCPILOT01,AE,01-701-1275,14,E08,PAROSMIA,STRANGE SMELL SENSATION,,PAROSMIA,,HLT_0258,,HLGT_0471,,NERVOUS SYSTEM DISORDERS,,NERVOUS SYSTEM DISORDERS,,MILD,false,,POSSIBLE,RECOVERED/RESOLVED,false,false,false,false,false,false,false,6/14/2014,2014-02-24,6/3/2014 00:00,18,117,,2
CDISCPILOT01,AE,01-701-1275,6,E11,PRURITUS,ITCHING,,PRURITUS,,HLT_0778,,HLGT_0695,,SKIN AND SUBCUTANEOUS TISSUE DISORDERS,,SKIN AND SUBCUTANEOUS TISSUE DISORDERS,,MILD,false,,POSSIBLE,NOT RECOVERED/NOT RESOLVED,false,false,false,false,false,false,false,3/7/2014,2014-02-24,6/12/2014 00:00,18,126,,2
CDISCPILOT01,AE,01-701-1275,15,E11,PRURITUS,ITCHING,,PRURITUS,,HLT_0778,,HLGT_0695,,SKIN AND SUBCUTANEOUS TISSUE DISORDERS,,SKIN AND SUBCUTANEOUS TISSUE DISORDERS,,MILD,false,,POSSIBLE,RECOVERED/RESOLVED,false,false,false,false,false,false,false,6/14/2014,2014-02-24,6/12/2014 00:00,18,126,,2
CDISCPILOT01,AE,01-701-1275,4,E07,SALIVARY HYPERSECRETION,HYPERSALIVATION,,SALIVARY HYPERSECRETION,,HLT_0374,,HLGT_0488,,GASTROINTESTINAL DISORDERS,,GASTROINTESTINAL DISORDERS,,MILD,false,,POSSIBLE,NOT RECOVERED/NOT RESOLVED,false,false,false,false,false,false,false,3/7/2014,2014-02-24,6/3/2014 00:00,18,117,,2
CDISCPILOT01,AE,01-701-1275,13,E07,SALIVARY HYPERSECRETION,HYPERSALIVATION,,SALIVARY HYPERSECRETION,,HLT_0374,,HLGT_0488,,GASTROINTESTINAL DISORDERS,,GASTROINTESTINAL DISORDERS,,MILD,false,,POSSIBLE,RECOVERED/RESOLVED,false,false,false,false,false,false,false,6/14/2014,2014-02-24,6/3/2014 00:00,18,117,,2
CDISCPILOT01,AE,01-701-1275,2,E05,VOMITING,VOMITING,,VOMITING,,HLT_0016,,HLGT_0350,,GASTROINTESTINAL DISORDERS,,GASTROINTESTINAL DISORDERS,,MILD,false,,POSSIBLE,RECOVERED/RESOLVED,false,false,false,false,false,false,false,3/7/2014,2014-02-23,2/23/2014 03:00,17,17,,2
CDISCPILOT01,AE,01-701-1287,3,E04,APPLICATION SITE ERYTHEMA,APPLICATION SITE REDNESS,,APPLICATION SITE ERYTHEMA,,HLT_0617,,HLGT_0152,,GENERAL DISORDERS AND ADMINISTRATION SITE CONDITIONS,,GENERAL DISORDERS AND ADMINISTRATION SITE CONDITIONS,,MILD,false,,PROBABLE,NOT RECOVERED/NOT RESOLVED,false,false,false,false,false,false,false,3/21/2014,2014-03-09,,44,,,6
CDISCPILOT01,AE,01-701-1287,2,E03,APPLICATION SITE PRURITUS,APPLICATION SITE ITCHING,,APPLICATION SITE PRURITUS,,HLT_0317,,HLGT_0338,,GENERAL DISORDERS AND ADMINISTRATION SITE CONDITIONS,,GENERAL DISORDERS AND ADMINISTRATION SITE CONDITIONS,,MILD,false,,POSSIBLE,NOT RECOVERED/NOT RESOLVED,false,false,false,false,false,false,false,3/6/2014,2014-02-22,,29,,,4
CDISCPILOT01,AE,01-701-1287,4,E05,RHINORRHOEA,RUNNY NOSE,,RHINORRHOEA,,HLT_0635,,HLGT_0460,,"RESPIRATORY, THORACIC AND MEDIASTINAL DISORDERS",,"RESPIRATORY, THORACIC AND MEDIASTINAL DISORDERS",,MILD,false,,NONE,NOT RECOVERED/NOT RESOLVED,false,false,false,false,false,false,false,7/12/2014,2014-07-09,7/12/2014 00:00,166,169,,23
CDISCPILOT01,AE,01-701-1287,5,E05,RHINORRHOEA,RUNNY NOSE,,RHINORRHOEA,,HLT_0635,,HLGT_0460,,"RESPIRATORY, THORACIC AND MEDIASTINAL DISORDERS",,"RESPIRATORY, THORACIC AND MEDIASTINAL DISORDERS",,MILD,false,,NONE,RECOVERED/RESOLVED,false,false,false,false,false,false,false,7/26/2014,2014-07-09,7/12/2014 00:00,166,169,,23
CDISCPILOT01,AE,01-701-1287,1,E02,SALIVARY HYPERSECRETION,INCREASED SALIVATION,,SALIVARY HYPERSECRETION,,HLT_0374,,HLGT_0488,,GASTROINTESTINAL DISORDERS,,GASTROINTESTINAL DISORDERS,,MILD,false,,NONE,NOT RECOVERED/NOT RESOLVED,false,false,false,false,false,false,false,2/11/2014,2014-01-26,,2,,,0
CDISCPILOT01,AE,01-701-1294,3,E08,APPLICATION SITE ERYTHEMA,APPLICATION SITE REDNESS,,APPLICATION SITE ERYTHEMA,,HLT_0617,,HLGT_0152,,GENERAL DISORDERS AND ADMINISTRATION SITE CONDITIONS,,GENERAL DISORDERS AND ADMINISTRATION SITE CONDITIONS,,MILD,false,,PROBABLE,NOT RECOVERED/NOT RESOLVED,false,false,false,false,false,false,false,5/22/2013,2013-05-19,,57,,,8
CDISCPILOT01,AE,01-701-1294,5,E08,APPLICATION SITE ERYTHEMA,APPLICATION SITE REDNESS,,APPLICATION SITE ERYTHEMA,,HLT_0617,,HLGT_0152,,GENERAL DISORDERS AND ADMINISTRATION SITE CONDITIONS,,GENERAL DISORDERS AND ADMINISTRATION SITE CONDITIONS,,MODERATE,false,,PROBABLE,NOT RECOVERED/NOT RESOLVED,false,false,false,false,false,false,false,6/14/2013,2013-05-19,,57,,,8
CDISCPILOT01,AE,01-701-1294,1,E06,APPLICATION SITE PRURITUS,APPLICATION SITE ITCHING,,APPLICATION SITE PRURITUS,,HLT_0317,,HLGT_0338,,GENERAL DISORDERS AND ADMINISTRATION SITE CONDITIONS,,GENERAL DISORDERS AND ADMINISTRATION SITE CONDITIONS,,MODERATE,false,,NONE,RECOVERED/RESOLVED,false,false,false,false,false,false,false,3/24/2013,2013-03-22,3/23/2013 04:00,-2,-1,,-1
CDISCPILOT01,AE,01-701-1294,2,E07,APPLICATION SITE PRURITUS,APPLICATION SITE ITCHING,,APPLICATION SITE PRURITUS,,HLT_0317,,HLGT_0338,,GENERAL DISORDERS AND ADMINISTRATION SITE CONDITIONS,,GENERAL DISORDERS AND ADMINISTRATION SITE CONDITIONS,,MILD,false,,POSSIBLE,NOT RECOVERED/NOT RESOLVED,false,false,false,false,false,false,false,5/22/2013,2013-05-19,,57,,,8
CDISCPILOT01,AE,01-701-1294,4,E07,APPLICATION SITE PRURITUS,APPLICATION SITE ITCHING,,APPLICATION SITE PRURITUS,,HLT_0317,,HLGT_0338,,GENERAL DISORDERS AND ADMINISTRATION SITE CONDITIONS,,GENERAL DISORDERS AND ADMINISTRATION SITE CONDITIONS,,MODERATE,false,,POSSIBLE,NOT RECOVERED/NOT RESOLVED,false,false,false,false,false,false,false,6/14/2013,2013-05-19,,57,,,8
CDISCPILOT01,AE,01-701-1294,6,E09,RASH ERYTHEMATOUS,ERYTHEMATOUS RASH,,RASH ERYTHEMATOUS,,HLT_0336,,HLGT_0701,,SKIN AND SUBCUTANEOUS TISSUE DISORDERS,,SKIN AND SUBCUTANEOUS TISSUE DISORDERS,,MODERATE,false,,PROBABLE,NOT RECOVERED/NOT RESOLVED,false,false,false,false,false,false,false,6/14/2013,2013-06-10,,79,,,11
CDISCPILOT01,AE,01-701-1302,16,E27,APPLICATION SITE ERYTHEMA,APPLICATION SITE REDNESS,,APPLICATION SITE ERYTHEMA,,HLT_0617,,HLGT_0152,,GENERAL DISORDERS AND ADMINISTRATION SITE CONDITIONS,,GENERAL DISORDERS AND ADMINISTRATION SITE CONDITIONS,,MILD,false,,PROBABLE,NOT RECOVERED/NOT RESOLVED,false,false,false,false,false,false,false,10/22/2013,2013-10-15,,48,,,6
CDISCPILOT01,AE,01-701-1302,1,E21,APPLICATION SITE PERSPIRATION,APPLICATION SITE PERSPIRATION,,APPLICATION SITE PERSPIRATION,,HLT_0283,,HLGT_0403,,GENERAL DISORDERS AND ADMINISTRATION SITE CONDITIONS,,GENERAL DISORDERS AND ADMINISTRATION SITE CONDITIONS,,MILD,false,,POSSIBLE,NOT RECOVERED/NOT RESOLVED,false,false,false,false,false,false,false,9/15/2013,2013-08-30,,2,,,0
CDISCPILOT01,AE,01-701-1302,17,E28,APPLICATION SITE PRURITUS,APPLICATION SITE ITCHING,,APPLICATION SITE PRURITUS,,HLT_0317,,HLGT_0338,,GENERAL DISORDERS AND ADMINISTRATION SITE CONDITIONS,,GENERAL DISORDERS AND ADMINISTRATION SITE CONDITIONS,,MILD,false,,PROBABLE,NOT RECOVERED/NOT RESOLVED,false,false,false,false,false,false,false,10/22/2013,2013-10-15,,48,,,6
CDISCPILOT01,AE,01-701-1302,12,E19,CONTUSION,BRUISE,,CONTUSION,,HLT_0713,,HLGT_0381,,"INJURY, POISONING AND PROCEDURAL COMPLICATIONS",,"INJURY, POISONING AND PROCEDURAL COMPLICATIONS",,MILD,false,,REMOTE,NOT RECOVERED/NOT RESOLVED,false,false,false,false,false,false,false,9/15/2013,2013-09-05,10/8/2013 00:00,8,41,,1
CDISCPILOT01,AE,01-701-1302,15,E19,CONTUSION,BRUISE,,CONTUSION,,HLT_0713,,HLGT_0381,,"INJURY, POISONING AND PROCEDURAL COMPLICATIONS",,"INJURY, POISONING AND PROCEDURAL COMPLICATIONS",,MILD,false,,REMOTE,RECOVERED/RESOLVED,false,false,false,false,false,false,false,10/22/2013,2013-09-05,10/8/2013 00:00,8,41,,1
CDISCPILOT01,AE,01-701-1302,9,E17,DIZZINESS,DIZZY,,DIZZINESS,,HLT_0619,,HLGT_0751,,NERVOUS SYSTEM DISORDERS,,NERVOUS SYSTEM DISORDERS,,MODERATE,false,,REMOTE,RECOVERED/RESOLVED,false,false,false,false,false,false,false,9/15/2013,2013-09-02,9/3/2013 00:00,5,6,,0
CDISCPILOT01,AE,01-701-1302,11,E20,DIZZINESS,LIGHTHEADEDNESS,,DIZZINESS,,HLT_0619,,HLGT_0751,,NERVOUS SYSTEM DISORDERS,,NERVOUS SYSTEM DISORDERS,,MILD,false,,POSSIBLE,NOT RECOVERED/NOT RESOLVED,false,false,false,false,false,false,false,9/15/2013,2013-09-04,,7,,,1
CDISCPILOT01,AE,01-701-1302,14,E25,EPISTAXIS,NOSE BLEED,,EPISTAXIS,,HLT_0386,,HLGT_0577,,"RESPIRATORY, THORACIC AND MEDIASTINAL DISORDERS",,"RESPIRATORY, THORACIC AND MEDIASTINAL DISORDERS",,MILD,false,,REMOTE,NOT RECOVERED/NOT RESOLVED,false,false,false,false,false,false,false,10/8/2013,2013-09-30,,33,,,4
CDISCPILOT01,AE,01-701-1302,21,E31,FEELING ABNORMAL,FOGGY FEELING IN HEAD,,FEELING ABNORMAL,,HLT_0524,,HLGT_0749,,GENERAL DISORDERS AND ADMINISTRATION SITE CONDITIONS,,GENERAL DISORDERS AND ADMINISTRATION SITE CONDITIONS,,MILD,false,,POSSIBLE,NOT RECOVERED/NOT RESOLVED,false,false,false,false,false,false,false,11/5/2013,2013-10-24,,57,,,8
CDISCPILOT01,AE,01-701-1302,13,E23,HEADACHE,HEADACHE,,HEADACHE,,HLT_0064,,HLGT_0344,,NERVOUS SYSTEM DISORDERS,,NERVOUS SYSTEM DISORDERS,,MILD,false,,NONE,NOT RECOVERED/NOT RESOLVED,false,false,false,false,false,false,false,9/15/2013,2013-09-15,,18,,,2
CDISCPILOT01,AE,01-701-1302,2,E24,HYPERHIDROSIS,PERSPIRATION EXCESSIVE,,HYPERHIDROSIS,,HLT_0587,,HLGT_0005,,SKIN AND SUBCUTANEOUS TISSUE DISORDERS,,SKIN AND SUBCUTANEOUS TISSUE DISORDERS,,MILD,false,,POSSIBLE,NOT RECOVERED/NOT RESOLVED,false,false,false,false,false,false,false,9/15/2013,2013-08-30,,2,,,0
CDISCPILOT01,AE,01-701-1302,23,E33,LIBIDO DECREASED,LIBIDO DECREASED,,LIBIDO DECREASED,,HLT_0338,,HLGT_0496,,PSYCHIATRIC DISORDERS,,PSYCHIATRIC DISORDERS,,MILD,false,,POSSIBLE,NOT RECOVERED/NOT RESOLVED,false,false,false,false,false,false,false,11/5/2013,2013-10-24,,57,,,8
CDISCPILOT01,AE,01-701-1302,22,E32,LISTLESS,LISTLESSNESS,,LISTLESS,,HLT_0657,,HLGT_0124,,PSYCHIATRIC DISORDERS,,PSYCHIATRIC DISORDERS,,MILD,false,,POSSIBLE,NOT RECOVERED/NOT RESOLVED,false,false,false,false,false,false,false,11/5/2013,2013-10-24,,57,,,8
CDISCPILOT01,AE,01-701-1302,8,E16,MALAISE,MALAISE,,MALAISE,,HLT_0456,,HLGT_0178,,GENERAL DISORDERS AND ADMINISTRATION SITE CONDITIONS,,GENERAL DISORDERS AND ADMINISTRATION SITE CONDITIONS,,MILD,false,,REMOTE,NOT RECOVERED/NOT RESOLVED,false,false,false,false,false,false,false,9/15/2013,2013-09-02,,5,,,0
CDISCPILOT01,AE,01-701-1302,18,E16,MALAISE,MALAISE,,MALAISE,,HLT_0456,,HLGT_0178,,GENERAL DISORDERS AND ADMINISTRATION SITE CONDITIONS,,GENERAL DISORDERS AND ADMINISTRATION SITE CONDITIONS,,MODERATE,false,,REMOTE,NOT RECOVERED/NOT RESOLVED,false,false,false,false,false,false,false,11/5/2013,2013-09-02,,5,,,0
CDISCPILOT01,AE,01-701-1302,10,E18,MYALGIA,MYALGIA,,MYALGIA,,HLT_0700,,HLGT_0121,,MUSCULOSKELETAL AND CONNECTIVE TISSUE DISORDERS,,MUSCULOSKELETAL AND CONNECTIVE TISSUE DISORDERS,,MILD,false,,POSSIBLE,NOT RECOVERED/NOT RESOLVED,false,false,false,false,false,false,false,9/15/2013,2013-09-02,,5,,,0
CDISCPILOT01,AE,01-701-1302,5,E13,NASAL CONGESTION,NASAL CONGESTION,,NASAL CONGESTION,,HLT_0118,,HLGT_0549,,"RESPIRATORY, THORACIC AND MEDIASTINAL DISORDERS",,"RESPIRATORY, THORACIC AND MEDIASTINAL DISORDERS",,MILD,false,,NONE,NOT RECOVERED/NOT RESOLVED,false,false,false,false,false,false,false,9/15/2013,2013-09-01,,4,,,0
CDISCPILOT01,AE,01-701-1302,4,E22,PAIN,STINGING,,PAIN,,HLT_0314,,HLGT_0478,,GENERAL DISORDERS AND ADMINISTRATION SITE CONDITIONS,,GENERAL DISORDERS AND ADMINISTRATION SITE CONDITIONS,,MILD,false,,POSSIBLE,NOT RECOVERED/NOT RESOLVED,false,false,false,false,false,false,false,9/15/2013,2013-08-31,,3,,,0
CDISCPILOT01,AE,01-701-1302,6,E14,PHARYNGOLARYNGEAL PAIN,SORE THROAT,,PHARYNGOLARYNGEAL PAIN,,HLT_0130,,HLGT_0402,,"RESPIRATORY, THORACIC AND MEDIASTINAL DISORDERS",,"RESPIRATORY, THORACIC AND MEDIASTINAL DISORDERS",,MILD,false,,NONE,NOT RECOVERED/NOT RESOLVED,false,false,false,false,false,false,false,9/15/2013,2013-09-02,,5,,,0
CDISCPILOT01,AE,01-701-1302,7,E15,PRODUCTIVE COUGH,PRODUCTIVE COUGH,,PRODUCTIVE COUGH,,HLT_0545,,HLGT_0681,,"RESPIRATORY, THORACIC AND MEDIASTINAL DISORDERS",,"RESPIRATORY, THORACIC AND MEDIASTINAL DISORDERS",,MILD,false,,NONE,NOT RECOVERED/NOT RESOLVED,false,false,false,false,false,false,false,9/15/2013,2013-09-02,,5,,,0
CDISCPILOT01,AE,01-701-1302,19,E29,RESPIRATORY TRACT CONGESTION,RESPIRATORY TRACT CONGESTION,,RESPIRATORY TRACT CONGESTION,,HLT_0330,,HLGT_0424,,"RESPIRATORY, THORACIC AND MEDIASTINAL DISORDERS",,"RESPIRATORY, THORACIC AND MEDIASTINAL DISORDERS",,MILD,false,,NONE,NOT RECOVERED/NOT RESOLVED,false,false,false,false,false,false,false,11/5/2013,2013-10-23,,56,,,8
CDISCPILOT01,AE,01-701-1302,20,E30,RHINITIS,CORYZA,,RHINITIS,,HLT_0239,,HLGT_0322,,INFECTIONS AND INFESTATIONS,,INFECTIONS AND INFESTATIONS,,MILD,false,,NONE,NOT RECOVERED/NOT RESOLVED,false,false,false,false,false,false,false,11/5/2013,2013-10-23,,56,,,8
CDISCPILOT01,AE,01-701-1302,3,E26,STOMACH DISCOMFORT,STOMACH UPSET,,STOMACH DISCOMFORT,,HLT_0065,,HLGT_0183,,GASTROINTESTINAL DISORDERS,,GASTROINTESTINAL DISORDERS,,MILD,false,,POSSIBLE,NOT RECOVERED/NOT RESOLVED,false,false,false,false,false,false,false,9/15/2013,2013-08-30,,2,,,0
CDISCPILOT01,AE,01-701-1317,3,E13,APPLICATION SITE ERYTHEMA,APPLICATION SITE REDNESS,,APPLICATION SITE ERYTHEMA,,HLT_0617,,HLGT_0152,,GENERAL DISORDERS AND ADMINISTRATION SITE CONDITIONS,,GENERAL DISORDERS AND ADMINISTRATION SITE CONDITIONS,,MILD,false,,POSSIBLE,NOT RECOVERED/NOT RESOLVED,false,false,false,false,false,false,false,7/3/2014,2014-06-23,,33,,,4
CDISCPILOT01,AE,01-701-1317,4,E14,APPLICATION SITE PRURITUS,APPLICATION SITE ITCHING,,APPLICATION SITE PRURITUS,,HLT_0317,,HLGT_0338,,GENERAL DISORDERS AND ADMINISTRATION SITE CONDITIONS,,GENERAL DISORDERS AND ADMINISTRATION SITE CONDITIONS,,MILD,false,,POSSIBLE,NOT RECOVERED/NOT RESOLVED,false,false,false,false,false,false,false,7/3/2014,2014-06-23,,33,,,4
CDISCPILOT01,AE,01-701-1317,5,E15,APPLICATION SITE URTICARIA,APPLICATION SITE URTICARIA,,APPLICATION SITE URTICARIA,,HLT_0196,,HLGT_0233,,GENERAL DISORDERS AND ADMINISTRATION SITE CONDITIONS,,GENERAL DISORDERS AND ADMINISTRATION SITE CONDITIONS,,MILD,false,,POSSIBLE,NOT RECOVERED/NOT RESOLVED,false,false,false,false,false,false,false,7/3/2014,2014-06-23,,33,,,4
CDISCPILOT01,AE,01-701-1317,2,E12,CYST,CYST,,CYST,,HLT_0763,,HLGT_0341,,GENERAL DISORDERS AND ADMINISTRATION SITE CONDITIONS,,GENERAL DISORDERS AND ADMINISTRATION SITE CONDITIONS,,MILD,false,,NONE,NOT RECOVERED/NOT RESOLVED,false,false,false,false,false,false,false,5/20/2014,2014-05-13,,1,2,,0
CDISCPILOT01,AE,01-701-1317,6,E16,DEPRESSED MOOD,DEPRESSED MOOD,,DEPRESSED MOOD,,HLT_0784,,HLGT_0122,,PSYCHIATRIC DISORDERS,,PSYCHIATRIC DISORDERS,,MILD,false,,POSSIBLE,NOT RECOVERED/NOT RESOLVED,false,false,false,false,false,false,false,7/22/2014,2014-07-04,,44,,,6
CDISCPILOT01,AE,01-701-1317,7,E16,DEPRESSED MOOD,DEPRESSED MOOD,,DEPRESSED MOOD,,HLT_0784,,HLGT_0122,,PSYCHIATRIC DISORDERS,,PSYCHIATRIC DISORDERS,,MODERATE,false,,POSSIBLE,NOT RECOVERED/NOT RESOLVED,false,false,false,false,false,false,false,10/9/2014,2014-07-04,,44,,,6
CDISCPILOT01,AE,01-701-1317,9,E18,DYSPHONIA,HOARSENESS,,DYSPHONIA,,HLT_0073,,HLGT_0274,,"RESPIRATORY, THORACIC AND MEDIASTINAL DISORDERS",,"RESPIRATORY, THORACIC AND MEDIASTINAL DISORDERS",,MILD,false,,REMOTE,NOT RECOVERED/NOT RESOLVED,false,false,false,false,false,false,false,11/5/2014,2014-11-03,,166,,,23
CDISCPILOT01,AE,01-701-1317,8,E17,FATIGUE,TIREDNESS,,FATIGUE,,HLT_0043,,HLGT_0181,,GENERAL DISORDERS AND ADMINISTRATION SITE CONDITIONS,,GENERAL DISORDERS AND ADMINISTRATION SITE CONDITIONS,,MILD,false,,REMOTE,NOT RECOVERED/NOT RESOLVED,false,false,false,false,false,false,false,10/9/2014,2014-09-12,,114,,,16
CDISCPILOT01,AE,01-701-1317,1,E11,ONYCHOMYCOSIS,ONYCHOMYCOSIS,,ONYCHOMYCOSIS,,HLT_0275,,HLGT_0243,,INFECTIONS AND INFESTATIONS,,INFECTIONS AND INFESTATIONS,,MILD,false,,NONE,NOT RECOVERED/NOT RESOLVED,false,false,false,false,false,false,false,5/20/2014,2014-05-13,,2,3,,0
CDISCPILOT01,AE,01-701-1324,1,E04,APPLICATION SITE ERYTHEMA,APPLICATION SITE ERYTHEMA,,APPLICATION SITE ERYTHEMA,,HLT_0617,,HLGT_0152,,GENERAL DISORDERS AND ADMINISTRATION SITE CONDITIONS,,GENERAL DISORDERS AND ADMINISTRATION SITE CONDITIONS,,MILD,false,,PROBABLE,NOT RECOVERED/NOT RESOLVED,false,false,false,false,false,false,false,10/30/2012,2012-10-22,,21,,,3
CDISCPILOT01,AE,01-701-1324,2,E06,APPLICATION SITE PRURITUS,APPLICATION SITE ITCHING,,APPLICATION SITE PRURITUS,,HLT_0317,,HLGT_0338,,GENERAL DISORDERS AND ADMINISTRATION SITE CONDITIONS,,GENERAL DISORDERS AND ADMINISTRATION SITE CONDITIONS,,MILD,false,,PROBABLE,NOT RECOVERED/NOT RESOLVED,false,false,false,false,false,false,false,12/25/2012,2012-12-02,,62,,,8
CDISCPILOT01,AE,01-701-1324,3,E05,APPLICATION SITE VESICLES,APPLICATION SITE BLISTER,,APPLICATION SITE VESICLES,,HLT_0180,,HLGT_0576,,GENERAL DISORDERS AND ADMINISTRATION SITE CONDITIONS,,GENERAL DISORDERS AND ADMINISTRATION SITE CONDITIONS,,MILD,false,,PROBABLE,NOT RECOVERED/NOT RESOLVED,false,false,false,false,false,false,false,12/25/2012,2012-12-25,1/16/2013 03:00,85,107,,12
CDISCPILOT01,AE,01-701-1324,4,E05,APPLICATION SITE VESICLES,APPLICATION SITE BLISTER,,APPLICATION SITE VESICLES,,HLT_0180,,HLGT_0576,,GENERAL DISORDERS AND ADMINISTRATION SITE CONDITIONS,,GENERAL DISORDERS AND ADMINISTRATION SITE CONDITIONS,,MILD,false,,PROBABLE,RECOVERED/RESOLVED,false,false,false,false,false,false,false,1/22/2013,2012-12-25,1/16/2013 03:00,85,107,,12
CDISCPILOT01,AE,01-701-1341,2,E10,APPLICATION SITE ERYTHEMA,APPLICATION SITE REDNESS,,APPLICATION SITE ERYTHEMA,,HLT_0617,,HLGT_0152,,GENERAL DISORDERS AND ADMINISTRATION SITE CONDITIONS,,GENERAL DISORDERS AND ADMINISTRATION SITE CONDITIONS,,MODERATE,false,,PROBABLE,NOT RECOVERED/NOT RESOLVED,false,false,false,false,false,false,false,2/7/2013,2013-01-19,,15,,,2
CDISCPILOT01,AE,01-701-1341,4,E12,APPLICATION SITE ERYTHEMA,APPLICATION SITE REDNESS,,APPLICATION SITE ERYTHEMA,,HLT_0617,,HLGT_0152,,GENERAL DISORDERS AND ADMINISTRATION SITE CONDITIONS,,GENERAL DISORDERS AND ADMINISTRATION SITE CONDITIONS,,MODERATE,false,,PROBABLE,NOT RECOVERED/NOT RESOLVED,false,false,false,false,false,false,false,2/7/2013,2013-01-26,,22,,,3
CDISCPILOT01,AE,01-701-1341,5,E13,APPLICATION SITE IRRITATION,APPLICATION SITE BURNING,,APPLICATION SITE IRRITATION,,HLT_0061,,HLGT_0346,,GENERAL DISORDERS AND ADMINISTRATION SITE CONDITIONS,,GENERAL DISORDERS AND ADMINISTRATION SITE CONDITIONS,,MODERATE,false,,PROBABLE,RECOVERED/RESOLVED,false,false,false,false,false,false,false,2/7/2013,2013-01-26,1/30/2013 03:00,22,26,,3
CDISCPILOT01,AE,01-701-1341,1,E09,APPLICATION SITE PRURITUS,APPLICATION SITE ITCHING,,APPLICATION SITE PRURITUS,,HLT_0317,,HLGT_0338,,GENERAL DISORDERS AND ADMINISTRATION SITE CONDITIONS,,GENERAL DISORDERS AND ADMINISTRATION SITE CONDITIONS,,MODERATE,false,,PROBABLE,NOT RECOVERED/NOT RESOLVED,false,false,false,false,false,false,false,2/7/2013,2013-01-19,,15,,,2
CDISCPILOT01,AE,01-701-1341,3,E11,APPLICATION SITE PRURITUS,APPLICATION SITE ITCHING,,APPLICATION SITE PRURITUS,,HLT_0317,,HLGT_0338,,GENERAL DISORDERS AND ADMINISTRATION SITE CONDITIONS,,GENERAL DISORDERS AND ADMINISTRATION SITE CONDITIONS,,MODERATE,false,,PROBABLE,RECOVERED/RESOLVED,false,false,false,false,false,false,false,2/7/2013,2013-01-26,1/30/2013 03:00,22,26,,3
CDISCPILOT01,AE,01-701-1360,1,E08,APPLICATION SITE ERYTHEMA,APPLICATION SITE ERYTHEMA,,APPLICATION SITE ERYTHEMA,,HLT_0617,,HLGT_0152,,GENERAL DISORDERS AND ADMINISTRATION SITE CONDITIONS,,GENERAL DISORDERS AND ADMINISTRATION SITE CONDITIONS,,MODERATE,false,,PROBABLE,NOT RECOVERED/NOT RESOLVED,false,false,false,false,false,false,false,8/14/2013,2013-08-02,,3,,,0
CDISCPILOT01,AE,01-701-1360,2,E09,APPLICATION SITE PRURITUS,APPLICATION SITE ITCHING,,APPLICATION SITE PRURITUS,,HLT_0317,,HLGT_0338,,GENERAL DISORDERS AND ADMINISTRATION SITE CONDITIONS,,GENERAL DISORDERS AND ADMINISTRATION SITE CONDITIONS,,MODERATE,false,,PROBABLE,NOT RECOVERED/NOT RESOLVED,false,false,false,false,false,false,false,8/14/2013,2013-08-02,,3,,,0
CDISCPILOT01,AE,01-701-1360,3,E10,APPLICATION SITE VESICLES,APPLICATION SITE BLISTER,,APPLICATION SITE VESICLES,,HLT_0180,,HLGT_0576,,GENERAL DISORDERS AND ADMINISTRATION SITE CONDITIONS,,GENERAL DISORDERS AND ADMINISTRATION SITE CONDITIONS,,MODERATE,false,,PROBABLE,NOT RECOVERED/NOT RESOLVED,false,false,false,false,false,false,false,8/14/2013,2013-08-05,,6,,,0
CDISCPILOT01,AE,01-701-1363,3,E11,APPLICATION SITE PRURITUS,APPLICATION SITE ITCHING,,APPLICATION SITE PRURITUS,,HLT_0317,,HLGT_0338,,GENERAL DISORDERS AND ADMINISTRATION SITE CONDITIONS,,GENERAL DISORDERS AND ADMINISTRATION SITE CONDITIONS,,MILD,false,,PROBABLE,NOT RECOVERED/NOT RESOLVED,false,false,false,false,false,false,false,7/24/2013,2013-07-16,,48,,,6
CDISCPILOT01,AE,01-701-1363,5,E13,BACK PAIN,BACKACHE,,BACK PAIN,,HLT_0115,,HLGT_0508,,MUSCULOSKELETAL AND CONNECTIVE TISSUE DISORDERS,,MUSCULOSKELETAL AND CONNECTIVE TISSUE DISORDERS,,MILD,false,,NONE,NOT RECOVERED/NOT RESOLVED,false,false,false,false,false,false,false,10/14/2013,2013-10-13,10/15/2013 00:00,137,139,,19
CDISCPILOT01,AE,01-701-1363,6,E13,BACK PAIN,BACKACHE,,BACK PAIN,,HLT_0115,,HLGT_0508,,MUSCULOSKELETAL AND CONNECTIVE TISSUE DISORDERS,,MUSCULOSKELETAL AND CONNECTIVE TISSUE DISORDERS,,MILD,false,,NONE,RECOVERED/RESOLVED,false,false,false,false,false,false,false,11/13/2013,2013-10-13,10/15/2013 00:00,137,139,,19
CDISCPILOT01,AE,01-701-1363,2,E03,HEADACHE,HEADACHE,,HEADACHE,,HLT_0064,,HLGT_0344,,NERVOUS SYSTEM DISORDERS,,NERVOUS SYSTEM DISORDERS,,MODERATE,false,,POSSIBLE,NOT RECOVERED/NOT RESOLVED,false,false,false,false,false,false,false,7/24/2013,1986,,,,,
CDISCPILOT01,AE,01-701-1363,4,E03,HEADACHE,HEADACHE,,HEADACHE,,HLT_0064,,HLGT_0344,,NERVOUS SYSTEM DISORDERS,,NERVOUS SYSTEM DISORDERS,,MILD,false,,POSSIBLE,NOT RECOVERED/NOT RESOLVED,false,false,false,false,false,false,false,10/14/2013,1986,,,,,
CDISCPILOT01,AE,01-701-1363,1,E09,NAUSEA,NAUSEA,,NAUSEA,,HLT_0742,,HLGT_0326,,GASTROINTESTINAL DISORDERS,,GASTROINTESTINAL DISORDERS,,MILD,false,,REMOTE,RECOVERED/RESOLVED,false,false,false,false,false,false,false,6/25/2013,2013-06-14,6/15/2013 00:00,16,17,,2
CDISCPILOT01,AE,01-701-1383,3,E06,APPLICATION SITE ERYTHEMA,APPLICATION SITE ERYTHEMA,,APPLICATION SITE ERYTHEMA,,HLT_0617,,HLGT_0152,,GENERAL DISORDERS AND ADMINISTRATION SITE CONDITIONS,,GENERAL DISORDERS AND ADMINISTRATION SITE CONDITIONS,,MILD,false,,POSSIBLE,RECOVERED/RESOLVED,false,false,false,false,false,false,false,4/2/2013,2013-03-23,3/26/2013 04:00,48,51,,6
CDISCPILOT01,AE,01-701-1383,5,E08,APPLICATION SITE ERYTHEMA,APPLICATION SITE ERYTHEMA,,APPLICATION SITE ERYTHEMA,,HLT_0617,,HLGT_0152,,GENERAL DISORDERS AND ADMINISTRATION SITE CONDITIONS,,GENERAL DISORDERS AND ADMINISTRATION SITE CONDITIONS,,MILD,false,,POSSIBLE,NOT RECOVERED/NOT RESOLVED,false,false,false,false,false,false,false,4/30/2013,2013-04-12,,68,,,9
CDISCPILOT01,AE,01-701-1383,6,E09,APPLICATION SITE IRRITATION,APPLICATION SITE BURNING,,APPLICATION SITE IRRITATION,,HLT_0061,,HLGT_0346,,GENERAL DISORDERS AND ADMINISTRATION SITE CONDITIONS,,GENERAL DISORDERS AND ADMINISTRATION SITE CONDITIONS,,MILD,false,,POSSIBLE,NOT RECOVERED/NOT RESOLVED,false,false,false,false,false,false,false,4/30/2013,2013-04-12,,68,,,9
CDISCPILOT01,AE,01-701-1383,8,E09,APPLICATION SITE IRRITATION,APPLICATION SITE BURNING,,APPLICATION SITE IRRITATION,,HLT_0061,,HLGT_0346,,GENERAL DISORDERS AND ADMINISTRATION SITE CONDITIONS,,GENERAL DISORDERS AND ADMINISTRATION SITE CONDITIONS,,MODERATE,false,,POSSIBLE,NOT RECOVERED/NOT RESOLVED,false,false,false,false,false,false,false,5/30/2013,2013-04-12,,68,,,9
CDISCPILOT01,AE,01-701-1383,2,E05,APPLICATION SITE PAIN,APPLICATION SITE PAIN,,APPLICATION SITE PAIN,,HLT_0342,,HLGT_0085,,GENERAL DISORDERS AND ADMINISTRATION SITE CONDITIONS,,GENERAL DISORDERS AND ADMINISTRATION SITE CONDITIONS,,MILD,false,,PROBABLE,RECOVERED/RESOLVED,false,false,false,false,false,false,false,2/19/2013,2013-02-07,2/7/2013 03:00,4,4,,0
CDISCPILOT01,AE,01-701-1383,1,E04,APPLICATION SITE PRURITUS,APPLICATION SITE ITCHING,,APPLICATION SITE PRURITUS,,HLT_0317,,HLGT_0338,,GENERAL DISORDERS AND ADMINISTRATION SITE CONDITIONS,,GENERAL DISORDERS AND ADMINISTRATION SITE CONDITIONS,,MILD,false,,PROBABLE,RECOVERED/RESOLVED,false,false,false,false,false,false,false,2/19/2013,2013-02-07,2/7/2013 03:00,4,4,,0
CDISCPILOT01,AE,01-701-1383,4,E07,APPLICATION SITE PRURITUS,APPLICATION SITE ITCHING,,APPLICATION SITE PRURITUS,,HLT_0317,,HLGT_0338,,GENERAL DISORDERS AND ADMINISTRATION SITE CONDITIONS,,GENERAL DISORDERS AND ADMINISTRATION SITE CONDITIONS,,MILD,false,,POSSIBLE,NOT RECOVERED/NOT RESOLVED,false,false,false,false,false,false,false,4/2/2013,2013-03-23,,48,,,6
CDISCPILOT01,AE,01-701-1383,7,E07,APPLICATION SITE PRURITUS,APPLICATION SITE ITCHING,,APPLICATION SITE PRURITUS,,HLT_0317,,HLGT_0338,,GENERAL DISORDERS AND ADMINISTRATION SITE CONDITIONS,,GENERAL DISORDERS AND ADMINISTRATION SITE CONDITIONS,,MODERATE,false,,POSSIBLE,NOT RECOVERED/NOT RESOLVED,false,false,false,false,false,false,false,5/30/2013,2013-03-23,,48,,,6
CDISCPILOT01,AE,01-701-1383,9,E10,APPLICATION SITE VESICLES,APPLICATION SITE BLISTER,,APPLICATION SITE VESICLES,,HLT_0180,,HLGT_0576,,GENERAL DISORDERS AND ADMINISTRATION SITE CONDITIONS,,GENERAL DISORDERS AND ADMINISTRATION SITE CONDITIONS,,MILD,false,,POSSIBLE,RECOVERED/RESOLVED,false,false,false,false,false,false,false,5/30/2013,2013-05-07,5/24/2013 00:00,93,110,,13
CDISCPILOT01,AE,01-701-1383,10,E11,CHEST DISCOMFORT,CHEST PRESSURE,,CHEST DISCOMFORT,,HLT_0593,,HLGT_0441,,GENERAL DISORDERS AND ADMINISTRATION SITE CONDITIONS,,GENERAL DISORDERS AND ADMINISTRATION SITE CONDITIONS,,MILD,false,,NONE,RECOVERED/RESOLVED,false,false,false,false,false,false,false,6/25/2013,2013-06-24,6/24/2013 00:00,141,141,,20
CDISCPILOT01,AE,01-701-1383,12,E13,COUGH,COUGH,,COUGH,,HLT_0701,,HLGT_0280,,"RESPIRATORY, THORACIC AND MEDIASTINAL DISORDERS",,"RESPIRATORY, THORACIC AND MEDIASTINAL DISORDERS",,MODERATE,false,,NONE,RECOVERED/RESOLVED,false,false,false,false,false,false,false,7/30/2013,2013-07-17,7/26/2013 00:00,164,173,,23
CDISCPILOT01,AE,01-701-1383,11,E12,HEADACHE,FULLNESS HEAD,,HEADACHE,,HLT_0064,,HLGT_0344,,NERVOUS SYSTEM DISORDERS,,NERVOUS SYSTEM DISORDERS,,MILD,false,,NONE,RECOVERED/RESOLVED,false,false,false,false,false,false,false,6/25/2013,2013-06-24,6/24/2013 00:00,141,141,,20
CDISCPILOT01,AE,01-701-1387,1,E08,DIARRHOEA,DIARRHEA,,DIARRHOEA,,HLT_0148,,HLGT_0588,,GASTROINTESTINAL DISORDERS,,GASTROINTESTINAL DISORDERS,,MILD,false,,REMOTE,RECOVERED/RESOLVED,false,false,false,false,false,false,false,3/25/2014,2014-03-18,3/18/2014 04:00,7,7,,1
CDISCPILOT01,AE,01-701-1387,2,E09,HYPERHIDROSIS,SWEATING,,HYPERHIDROSIS,,HLT_0587,,HLGT_0005,,SKIN AND SUBCUTANEOUS TISSUE DISORDERS,,SKIN AND SUBCUTANEOUS TISSUE DISORDERS,,MILD,false,,REMOTE,RECOVERED/RESOLVED,false,false,false,false,false,false,false,3/25/2014,2014-03-18,3/18/2014 04:00,7,7,,1
CDISCPILOT01,AE,01-701-1392,1,E04,UPPER RESPIRATORY TRACT INFECTION,UPPER RESPIRATORY INFECTION,,UPPER RESPIRATORY TRACT INFECTION,,HLT_0520,,HLGT_0489,,INFECTIONS AND INFESTATIONS,,INFECTIONS AND INFESTATIONS,,MILD,false,,REMOTE,NOT RECOVERED/NOT RESOLVED,false,false,false,false,false,false,false,3/17/2013,2013-03-16,3/21/2013 04:00,140,145,,20
CDISCPILOT01,AE,01-701-1392,2,E04,UPPER RESPIRATORY TRACT INFECTION,UPPER RESPIRATORY INFECTION,,UPPER RESPIRATORY TRACT INFECTION,,HLT_0520,,HLGT_0489,,INFECTIONS AND INFESTATIONS,,INFECTIONS AND INFESTATIONS,,MILD,false,,REMOTE,RECOVERED/RESOLVED,false,false,false,false,false,false,false,4/15/2013,2013-03-16,3/21/2013 04:00,140,145,,20
CDISCPILOT01,AE,01-701-1415,6,E12,DIARRHOEA,DIARRHEA,,DIARRHOEA,,HLT_0148,,HLGT_0588,,GASTROINTESTINAL DISORDERS,,GASTROINTESTINAL DISORDERS,,MILD,false,,NONE,RECOVERED/RESOLVED,false,false,false,false,false,false,false,3/10/2014,2014-03-09,3/9/2014 03:00,168,168,,24
CDISCPILOT01,AE,01-701-1415,3,E10,MICTURITION URGENCY,URINARY URGENCY,,MICTURITION URGENCY,,HLT_0294,,HLGT_0483,,RENAL AND URINARY DISORDERS,,RENAL AND URINARY DISORDERS,,MILD,false,,NONE,NOT RECOVERED/NOT RESOLVED,false,false,false,false,false,false,false,12/21/2013,2013-12-02,,71,,,10
CDISCPILOT01,AE,01-701-1415,1,E09,UPPER RESPIRATORY TRACT INFECTION,UPPER RESPIRATORY INFECTION,,UPPER RESPIRATORY TRACT INFECTION,,HLT_0520,,HLGT_0489,,INFECTIONS AND INFESTATIONS,,INFECTIONS AND INFESTATIONS,,MILD,false,,NONE,NOT RECOVERED/NOT RESOLVED,false,false,false,false,false,false,false,10/22/2013,2013-10-21,11/4/2013 03:00,29,43,,4
CDISCPILOT01,AE,01-701-1415,2,E09,UPPER RESPIRATORY TRACT INFECTION,UPPER RESPIRATORY INFECTION,,UPPER RESPIRATORY TRACT INFECTION,,HLT_0520,,HLGT_0489,,INFECTIONS AND INFESTATIONS,,INFECTIONS AND INFESTATIONS,,MILD,false,,NONE,RECOVERED/RESOLVED,false,false,false,false,false,false,false,11/21/2013,2013-10-21,11/4/2013 03:00,29,43,,4
CDISCPILOT01,AE,01-701-1415,4,E11,UPPER RESPIRATORY TRACT INFECTION,UPPER RESPIRATORY INFECTION,,UPPER RESPIRATORY TRACT INFECTION,,HLT_0520,,HLGT_0489,,INFECTIONS AND INFESTATIONS,,INFECTIONS AND INFESTATIONS,,MILD,false,,REMOTE,NOT RECOVERED/NOT RESOLVED,false,false,false,false,false,false,false,2/10/2014,2014-01-21,2/10/2014 03:00,121,141,,17
CDISCPILOT01,AE,01-701-1415,5,E11,UPPER RESPIRATORY TRACT INFECTION,UPPER RESPIRATORY INFECTION,,UPPER RESPIRATORY TRACT INFECTION,,HLT_0520,,HLGT_0489,,INFECTIONS AND INFESTATIONS,,INFECTIONS AND INFESTATIONS,,MILD,false,,REMOTE,RECOVERED/RESOLVED,false,false,false,false,false,false,false,3/10/2014,2014-01-21,2/10/2014 03:00,121,141,,17
CDISCPILOT01,AE,01-701-1442,1,E03,APPLICATION SITE PRURITUS,APPLICATION SITE ITCHING,,APPLICATION SITE PRURITUS,,HLT_0317,,HLGT_0338,,GENERAL DISORDERS AND ADMINISTRATION SITE CONDITIONS,,GENERAL DISORDERS AND ADMINISTRATION SITE CONDITIONS,,MILD,false,,PROBABLE,NOT RECOVERED/NOT RESOLVED,false,false,false,false,false,false,false,1/18/2014,2014-01-10,,77,,,11
CDISCPILOT01,AE,01-701-1444,1,E11,APPLICATION SITE ERYTHEMA,APPLICATION SITE ERYTHEMA,,APPLICATION SITE ERYTHEMA,,HLT_0617,,HLGT_0152,,GENERAL DISORDERS AND ADMINISTRATION SITE CONDITIONS,,GENERAL DISORDERS AND ADMINISTRATION SITE CONDITIONS,,MILD,false,,POSSIBLE,NOT RECOVERED/NOT RESOLVED,false,false,false,false,false,false,false,1/31/2013,2013-01-19,,15,,,2
CDISCPILOT01,AE,01-701-1444,4,E11,APPLICATION SITE ERYTHEMA,APPLICATION SITE ERYTHEMA,,APPLICATION SITE ERYTHEMA,,HLT_0617,,HLGT_0152,,GENERAL DISORDERS AND ADMINISTRATION SITE CONDITIONS,,GENERAL DISORDERS AND ADMINISTRATION SITE CONDITIONS,,MODERATE,false,,POSSIBLE,NOT RECOVERED/NOT RESOLVED,false,false,false,false,false,false,false,2/13/2013,2013-01-19,,15,,,2
CDISCPILOT01,AE,01-701-1444,6,E15,APPLICATION SITE IRRITATION,APPLICATION SITE BURNING,,APPLICATION SITE IRRITATION,,HLT_0061,,HLGT_0346,,GENERAL DISORDERS AND ADMINISTRATION SITE CONDITIONS,,GENERAL DISORDERS AND ADMINISTRATION SITE CONDITIONS,,MODERATE,false,,PROBABLE,NOT RECOVERED/NOT RESOLVED,false,false,false,false,false,false,false,2/13/2013,2013-02-04,,31,,,4
CDISCPILOT01,AE,01-701-1444,2,E12,APPLICATION SITE PRURITUS,APPLICATION SITE ITCHING,,APPLICATION SITE PRURITUS,,HLT_0317,,HLGT_0338,,GENERAL DISORDERS AND ADMINISTRATION SITE CONDITIONS,,GENERAL DISORDERS AND ADMINISTRATION SITE CONDITIONS,,MILD,false,,PROBABLE,NOT RECOVERED/NOT RESOLVED,false,false,false,false,false,false,false,1/31/2013,2013-01-19,,15,,,2
CDISCPILOT01,AE,01-701-1444,5,E12,APPLICATION SITE PRURITUS,APPLICATION SITE ITCHING,,APPLICATION SITE PRURITUS,,HLT_0317,,HLGT_0338,,GENERAL DISORDERS AND ADMINISTRATION SITE CONDITIONS,,GENERAL DISORDERS AND ADMINISTRATION SITE CONDITIONS,,MODERATE,false,,PROBABLE,NOT RECOVERED/NOT RESOLVED,false,false,false,false,false,false,false,2/13/2013,2013-01-19,,15,,,2
CDISCPILOT01,AE,01-701-1444,7,E16,APPLICATION SITE VESICLES,APPLICATION SITE BLISTER,,APPLICATION SITE VESICLES,,HLT_0180,,HLGT_0576,,GENERAL DISORDERS AND ADMINISTRATION SITE CONDITIONS,,GENERAL DISORDERS AND ADMINISTRATION SITE CONDITIONS,,MODERATE,false,,PROBABLE,NOT RECOVERED/NOT RESOLVED,false,false,false,false,false,false,false,2/13/2013,2013-02-04,,31,,,4
CDISCPILOT01,AE,01-701-1444,8,E14,PARAESTHESIA,TINGLING,,PARAESTHESIA,,HLT_0481,,HLGT_0534,,NERVOUS SYSTEM DISORDERS,,NERVOUS SYSTEM DISORDERS,,MILD,false,,NONE,RECOVERED/RESOLVED,false,false,false,false,false,false,false,2/13/2013,2013-02-08,2/8/2013 03:00,35,35,,5
CDISCPILOT01,AE,01-701-1444,3,E13,SALIVARY HYPERSECRETION,HYPERSALIVATION,,SALIVARY HYPERSECRETION,,HLT_0374,,HLGT_0488,,GASTROINTESTINAL DISORDERS,,GASTROINTESTINAL DISORDERS,,MILD,false,,POSSIBLE,NOT RECOVERED/NOT RESOLVED,false,false,false,false,false,false,false,1/31/2013,2013-01-19,,15,,,2
CDISCPILOT01,AE,01-702-1082,9,E07,APPLICATION SITE IRRITATION,APPLICATION SITE IRRITATION,,APPLICATION SITE IRRITATION,,HLT_0061,,HLGT_0346,,GENERAL DISORDERS AND ADMINISTRATION SITE CONDITIONS,,GENERAL DISORDERS AND ADMINISTRATION SITE CONDITIONS,,MILD,false,,PROBABLE,RECOVERED/RESOLVED,false,false,false,false,false,false,false,9/28/2013,2013-09-09,9/24/2013 00:00,46,61,,6
CDISCPILOT01,AE,01-702-1082,2,E03,NEUTROPHIL COUNT INCREASED,NEUTROPHIL COUNT INCREASED,,NEUTROPHIL COUNT INCREASED,,HLT_0326,,HLGT_0625,,INVESTIGATIONS,,INVESTIGATIONS,,MILD,false,,NONE,NOT RECOVERED/NOT RESOLVED,false,false,false,false,false,false,false,7/24/2013,2013-07-07,7/26/2013 00:00,3,5,,0
CDISCPILOT01,AE,01-702-1082,6,E03,NEUTROPHIL COUNT INCREASED,NEUTROPHIL COUNT INCREASED,,NEUTROPHIL COUNT INCREASED,,HLT_0326,,HLGT_0625,,INVESTIGATIONS,,INVESTIGATIONS,,MILD,false,,NONE,RECOVERED/RESOLVED,false,false,false,false,false,false,false,8/8/2013,2013-07-07,7/26/2013 00:00,-1,1,,-1
CDISCPILOT01,AE,01-702-1082,7,E06,RECTAL HAEMORRHAGE,RECTAL BLEEDING,,RECTAL HAEMORRHAGE,,HLT_0353,,HLGT_0755,,GASTROINTESTINAL DISORDERS,,GASTROINTESTINAL DISORDERS,,MILD,false,,NONE,NOT RECOVERED/NOT RESOLVED,false,false,false,false,false,false,false,9/6/2013,2013-09-02,9/6/2013 00:00,39,43,,5
CDISCPILOT01,AE,01-702-1082,8,E06,RECTAL HAEMORRHAGE,RECTAL BLEEDING,,RECTAL HAEMORRHAGE,,HLT_0353,,HLGT_0755,,GASTROINTESTINAL DISORDERS,,GASTROINTESTINAL DISORDERS,,MILD,false,,NONE,RECOVERED/RESOLVED,false,false,false,false,false,false,false,9/28/2013,2013-09-02,9/6/2013 00:00,39,43,,5
CDISCPILOT01,AE,01-702-1082,10,E08,SKIN IRRITATION,SKIN IRRITATION,,SKIN IRRITATION,,HLT_0583,,HLGT_0384,,SKIN AND SUBCUTANEOUS TISSUE DISORDERS,,SKIN AND SUBCUTANEOUS TISSUE DISORDERS,,MODERATE,false,,PROBABLE,RECOVERED/RESOLVED,false,false,false,false,false,false,false,11/17/2013,2013-10-12,10/31/2013 04:00,79,98,,11
CDISCPILOT01,AE,01-702-1082,3,E04,URINE ANALYSIS ABNORMAL,URINE ANALYSIS ABNORMAL,,URINE ANALYSIS ABNORMAL,,HLT_0783,,HLGT_0295,,INVESTIGATIONS,,INVESTIGATIONS,,MILD,false,,NONE,NOT RECOVERED/NOT RESOLVED,false,false,false,false,false,false,false,7/24/2013,2013-07-07,7/24/2013 00:00,5,10,,0
CDISCPILOT01,AE,01-702-1082,4,E04,URINE ANALYSIS ABNORMAL,URINE ANALYSIS ABNORMAL,,URINE ANALYSIS ABNORMAL,,HLT_0783,,HLGT_0295,,INVESTIGATIONS,,INVESTIGATIONS,,MILD,false,,NONE,RECOVERED/RESOLVED,false,false,false,false,false,false,false,7/26/2013,2013-07-07,7/24/2013 00:00,6,9,,0
CDISCPILOT01,AE,01-702-1082,1,E02,WHITE BLOOD CELL COUNT INCREASED,WBC INCREASED,,WHITE BLOOD CELL COUNT INCREASED,,HLT_0417,,HLGT_0465,,INVESTIGATIONS,,INVESTIGATIONS,,MILD,false,,NONE,NOT RECOVERED/NOT RESOLVED,false,false,false,false,false,false,false,7/24/2013,2013-07-07,7/26/2013 00:00,7,8,,1
CDISCPILOT01,AE,01-702-1082,5,E02,WHITE BLOOD CELL COUNT INCREASED,WBC INCREASED,,WHITE BLOOD CELL COUNT INCREASED,,HLT_0417,,HLGT_0465,,INVESTIGATIONS,,INVESTIGATIONS,,MILD,false,,NONE,RECOVERED/RESOLVED,false,false,false,false,false,false,false,8/8/2013,2013-07-07,7/26/2013 00:00,8,10,,1
CDISCPILOT01,AE,01-703-1042,1,E04,DIARRHOEA,DIARRHEA,,DIARRHOEA,,HLT_0148,,HLGT_0588,,GASTROINTESTINAL DISORDERS,,GASTROINTESTINAL DISORDERS,,MILD,false,,POSSIBLE,RECOVERED/RESOLVED,false,false,false,false,false,false,false,3/14/2013,2013-03-04,3/5/2013 03:00,3,4,,0
CDISCPILOT01,AE,01-703-1042,2,E05,INSOMNIA,INSOMNIA,,INSOMNIA,,HLT_0297,,HLGT_0469,,PSYCHIATRIC DISORDERS,,PSYCHIATRIC DISORDERS,,MILD,false,,REMOTE,RECOVERED/RESOLVED,false,false,false,false,false,false,false,3/14/2013,2013-03-05,3/6/2013 03:00,4,5,,0
CDISCPILOT01,AE,01-703-1076,5,E09,APPLICATION SITE DERMATITIS,APPLICATION SITE RASH,,APPLICATION SITE DERMATITIS,,HLT_0343,,HLGT_0241,,GENERAL DISORDERS AND ADMINISTRATION SITE CONDITIONS,,GENERAL DISORDERS AND ADMINISTRATION SITE CONDITIONS,,MILD,false,,PROBABLE,NOT RECOVERED/NOT RESOLVED,false,false,false,false,false,false,false,12/4/2013,2013-11-23,,30,,,4
CDISCPILOT01,AE,01-703-1076,4,E08,APPLICATION SITE PRURITUS,APPLICATION SITE ITCHING,,APPLICATION SITE PRURITUS,,HLT_0317,,HLGT_0338,,GENERAL DISORDERS AND ADMINISTRATION SITE CONDITIONS,,GENERAL DISORDERS AND ADMINISTRATION SITE CONDITIONS,,MILD,false,,PROBABLE,NOT RECOVERED/NOT RESOLVED,false,false,false,false,false,false,false,12/4/2013,2013-11-23,,30,,,4
CDISCPILOT01,AE,01-703-1076,7,E08,APPLICATION SITE PRURITUS,APPLICATION SITE ITCHING,,APPLICATION SITE PRURITUS,,HLT_0317,,HLGT_0338,,GENERAL DISORDERS AND ADMINISTRATION SITE CONDITIONS,,GENERAL DISORDERS AND ADMINISTRATION SITE CONDITIONS,,MODERATE,false,,PROBABLE,NOT RECOVERED/NOT RESOLVED,false,false,false,false,false,false,false,12/17/2013,2013-11-23,,30,,,4
CDISCPILOT01,AE,01-703-1076,2,E01,BENIGN PROSTATIC HYPERPLASIA,BENIGN PROSTATIC HYPERTROPHY,,BENIGN PROSTATIC HYPERPLASIA,,HLT_0215,,HLGT_0568,,REPRODUCTIVE SYSTEM AND BREAST DISORDERS,,REPRODUCTIVE SYSTEM AND BREAST DISORDERS,,MODERATE,false,,NONE,NOT RECOVERED/NOT RESOLVED,false,false,false,false,false,false,false,11/20/2013,2013-11-20,,27,,,3
CDISCPILOT01,AE,01-703-1076,1,E02,BIOPSY PROSTATE,BIOPSY OF PROSTATE,,BIOPSY PROSTATE,,HLT_0553,,HLGT_0725,,INVESTIGATIONS,,INVESTIGATIONS,,MODERATE,false,,NONE,RECOVERED/RESOLVED,false,false,false,false,false,false,false,11/20/2013,2013-11-16,11/16/2013 03:00,23,23,,3
CDISCPILOT01,AE,01-703-1076,3,E05,HYPERCHOLESTEROLAEMIA,HYPERCHOLESTEROLEMIA,,HYPERCHOLESTEROLAEMIA,,HLT_0025,,HLGT_0703,,METABOLISM AND NUTRITION DISORDERS,,METABOLISM AND NUTRITION DISORDERS,,MODERATE,false,,NONE,NOT RECOVERED/NOT RESOLVED,false,false,false,false,false,false,false,12/4/2013,2007,,,,,
CDISCPILOT01,AE,01-703-1076,6,E07,HYPERHIDROSIS,SWEATING,,HYPERHIDROSIS,,HLT_0587,,HLGT_0005,,SKIN AND SUBCUTANEOUS TISSUE DISORDERS,,SKIN AND SUBCUTANEOUS TISSUE DISORDERS,,MILD,false,,POSSIBLE,NOT RECOVERED/NOT RESOLVED,false,false,false,false,false,false,false,12/4/2013,2013-11-25,,32,,,4
CDISCPILOT01,AE,01-703-1086,1,E01,APPLICATION SITE IRRITATION,APPLICATION SITE IRRITATION,,APPLICATION SITE IRRITATION,,HLT_0061,,HLGT_0346,,GENERAL DISORDERS AND ADMINISTRATION SITE CONDITIONS,,GENERAL DISORDERS AND ADMINISTRATION SITE CONDITIONS,,MILD,false,,PROBABLE,NOT RECOVERED/NOT RESOLVED,false,false,false,false,false,false,false,9/16/2012,2012-09-13,1/2/2013 03:00,12,123,,1
CDISCPILOT01,AE,01-703-1086,2,E01,APPLICATION SITE IRRITATION,APPLICATION SITE IRRITATION,,APPLICATION SITE IRRITATION,,HLT_0061,,HLGT_0346,,GENERAL DISORDERS AND ADMINISTRATION SITE CONDITIONS,,GENERAL DISORDERS AND ADMINISTRATION SITE CONDITIONS,,MODERATE,false,,PROBABLE,NOT RECOVERED/NOT RESOLVED,false,false,false,false,false,false,false,9/30/2012,2012-09-13,1/2/2013 03:00,12,123,,1
CDISCPILOT01,AE,01-703-1086,3,E01,APPLICATION SITE IRRITATION,APPLICATION SITE IRRITATION,,APPLICATION SITE IRRITATION,,HLT_0061,,HLGT_0346,,GENERAL DISORDERS AND ADMINISTRATION SITE CONDITIONS,,GENERAL DISORDERS AND ADMINISTRATION SITE CONDITIONS,,SEVERE,false,,PROBABLE,NOT RECOVERED/NOT RESOLVED,false,false,false,false,false,false,false,10/13/2012,2012-09-13,1/2/2013 03:00,12,123,,1
CDISCPILOT01,AE,01-703-1086,6,E01,APPLICATION SITE IRRITATION,APPLICATION SITE IRRITATION,,APPLICATION SITE IRRITATION,,HLT_0061,,HLGT_0346,,GENERAL DISORDERS AND ADMINISTRATION SITE CONDITIONS,,GENERAL DISORDERS AND ADMINISTRATION SITE CONDITIONS,,MILD,false,,PROBABLE,RECOVERED/RESOLVED,false,false,false,false,false,false,false,3/26/2013,2012-09-13,1/2/2013 03:00,12,123,,1
CDISCPILOT01,AE,01-703-1086,4,E02,CHILLS,CHILLS,,CHILLS,,HLT_0586,,HLGT_0161,,GENERAL DISORDERS AND ADMINISTRATION SITE CONDITIONS,,GENERAL DISORDERS AND ADMINISTRATION SITE CONDITIONS,,MILD,false,,POSSIBLE,NOT RECOVERED/NOT RESOLVED,false,false,false,false,false,false,false,10/13/2012,2012-10-09,10/15/2012 00:00,38,44,,5
CDISCPILOT01,AE,01-703-1086,5,E02,CHILLS,CHILLS,,CHILLS,,HLT_0586,,HLGT_0161,,GENERAL DISORDERS AND ADMINISTRATION SITE CONDITIONS,,GENERAL DISORDERS AND ADMINISTRATION SITE CONDITIONS,,MILD,false,,POSSIBLE,RECOVERED/RESOLVED,false,false,false,false,false,false,false,10/27/2012,2012-10-09,10/15/2012 00:00,38,44,,5
CDISCPILOT01,AE,01-703-1100,1,E04,APPLICATION SITE IRRITATION,APPLICATION SITE IRRITATION,,APPLICATION SITE IRRITATION,,HLT_0061,,HLGT_0346,,GENERAL DISORDERS AND ADMINISTRATION SITE CONDITIONS,,GENERAL DISORDERS AND ADMINISTRATION SITE CONDITIONS,,MODERATE,false,,PROBABLE,NOT RECOVERED/NOT RESOLVED,false,false,false,false,false,false,false,4/12/2013,2013-04-05,4/16/2013 00:00,24,35,,3
CDISCPILOT01,AE,01-703-1100,2,E04,APPLICATION SITE IRRITATION,APPLICATION SITE IRRITATION,,APPLICATION SITE IRRITATION,,HLT_0061,,HLGT_0346,,GENERAL DISORDERS AND ADMINISTRATION SITE CONDITIONS,,GENERAL DISORDERS AND ADMINISTRATION SITE CONDITIONS,,MILD,false,,PROBABLE,NOT RECOVERED/NOT RESOLVED,false,false,false,false,false,false,false,4/14/2013,2013-04-05,4/16/2013 00:00,24,35,,3
CDISCPILOT01,AE,01-703-1100,3,E04,APPLICATION SITE IRRITATION,APPLICATION SITE IRRITATION,,APPLICATION SITE IRRITATION,,HLT_0061,,HLGT_0346,,GENERAL DISORDERS AND ADMINISTRATION SITE CONDITIONS,,GENERAL DISORDERS AND ADMINISTRATION SITE CONDITIONS,,MILD,false,,PROBABLE,RECOVERED/RESOLVED,false,false,false,false,false,false,false,4/24/2013,2013-04-05,4/16/2013 00:00,24,35,,3
CDISCPILOT01,AE,01-703-1100,4,E06,CATARACT OPERATION,CATARACT EXTRACTION,,CATARACT OPERATION,,HLT_0432,,HLGT_0058,,SURGICAL AND MEDICAL PROCEDURES,,SURGICAL AND MEDICAL PROCEDURES,,MODERATE,false,,NONE,RECOVERED/RESOLVED,false,false,false,false,false,false,false,5/8/2013,2013-04-25,4/25/2013 00:00,44,44,,6
CDISCPILOT01,AE,01-703-1100,6,E07,OEDEMA PERIPHERAL,LEG EDEMA,,OEDEMA PERIPHERAL,,HLT_0661,,HLGT_0137,,GENERAL DISORDERS AND ADMINISTRATION SITE CONDITIONS,,GENERAL DISORDERS AND ADMINISTRATION SITE CONDITIONS,,MODERATE,false,,REMOTE,NOT RECOVERED/NOT RESOLVED,false,false,false,false,false,false,false,7/31/2013,2013-02-28,9/14/2013 00:00,50,55,,7
CDISCPILOT01,AE,01-703-1100,8,E07,OEDEMA PERIPHERAL,LEG EDEMA,,OEDEMA PERIPHERAL,,HLT_0661,,HLGT_0137,,GENERAL DISORDERS AND ADMINISTRATION SITE CONDITIONS,,GENERAL DISORDERS AND ADMINISTRATION SITE CONDITIONS,,MODERATE,false,,REMOTE,RECOVERED/RESOLVED,false,false,false,false,false,false,false,9/14/2013,2013-02-28,9/14/2013 00:00,60,65,,8
CDISCPILOT01,AE,01-703-1100,7,E09,OEDEMA PERIPHERAL,LEG EDEMA,,OEDEMA PERIPHERAL,,HLT_0661,,HLGT_0137,,GENERAL DISORDERS AND ADMINISTRATION SITE CONDITIONS,,GENERAL DISORDERS AND ADMINISTRATION SITE CONDITIONS,,MILD,false,,REMOTE,NOT RECOVERED/NOT RESOLVED,false,false,false,false,false,false,false,7/31/2013,2013-07-17,9/14/2013 00:00,127,186,,18
CDISCPILOT01,AE,01-703-1100,9,E09,OEDEMA PERIPHERAL,LEG EDEMA,,OEDEMA PERIPHERAL,,HLT_0661,,HLGT_0137,,GENERAL DISORDERS AND ADMINISTRATION SITE CONDITIONS,,GENERAL DISORDERS AND ADMINISTRATION SITE CONDITIONS,,MILD,false,,REMOTE,RECOVERED/RESOLVED,false,false,false,false,false,false,false,9/14/2013,2013-07-17,9/14/2013 00:00,127,186,,18
CDISCPILOT01,AE,01-703-1100,5,E08,UPPER RESPIRATORY TRACT INFECTION,UPPER RESPIRATORY INFECTION,,UPPER RESPIRATORY TRACT INFECTION,,HLT_0520,,HLGT_0489,,INFECTIONS AND INFESTATIONS,,INFECTIONS AND INFESTATIONS,,MODERATE,false,,REMOTE,RECOVERED/RESOLVED,false,false,false,false,false,false,false,6/5/2013,2013-05-27,6/3/2013 00:00,76,83,,10
CDISCPILOT01,AE,01-703-1119,1,E04,APPLICATION SITE IRRITATION,APPLICATION SITE IRRITATION,,APPLICATION SITE IRRITATION,,HLT_0061,,HLGT_0346,,GENERAL DISORDERS AND ADMINISTRATION SITE CONDITIONS,,GENERAL DISORDERS AND ADMINISTRATION SITE CONDITIONS,,MODERATE,false,,PROBABLE,NOT RECOVERED/NOT RESOLVED,false,false,false,false,false,false,false,3/21/2013,2013-03-16,,25,,,3
CDISCPILOT01,AE,01-703-1119,2,E04,APPLICATION SITE IRRITATION,APPLICATION SITE IRRITATION,,APPLICATION SITE IRRITATION,,HLT_0061,,HLGT_0346,,GENERAL DISORDERS AND ADMINISTRATION SITE CONDITIONS,,GENERAL DISORDERS AND ADMINISTRATION SITE CONDITIONS,,SEVERE,false,,PROBABLE,NOT RECOVERED/NOT RESOLVED,false,false,false,false,false,false,false,5/17/2013,2013-03-16,,25,,,3
CDISCPILOT01,AE,01-703-1119,3,E05,PRURITUS,ITCHING,,PRURITUS,,HLT_0778,,HLGT_0695,,SKIN AND SUBCUTANEOUS TISSUE DISORDERS,,SKIN AND SUBCUTANEOUS TISSUE DISORDERS,,MODERATE,false,,PROBABLE,NOT RECOVERED/NOT RESOLVED,false,false,false,false,false,false,false,5/17/2013,2013-05-04,,74,,,10
CDISCPILOT01,AE,01-703-1119,4,E05,PRURITUS,ITCHING,,PRURITUS,,HLT_0778,,HLGT_0695,,SKIN AND SUBCUTANEOUS TISSUE DISORDERS,,SKIN AND SUBCUTANEOUS TISSUE DISORDERS,,SEVERE,false,,PROBABLE,NOT RECOVERED/NOT RESOLVED,false,false,false,false,false,false,false,6/13/2013,2013-05-04,,74,,,10
CDISCPILOT01,AE,01-703-1175,1,E01,ATRIOVENTRICULAR BLOCK SECOND DEGREE,HEART BLOCK SECOND DEGREE,,ATRIOVENTRICULAR BLOCK SECOND DEGREE,,HLT_0415,,HLGT_0086,,CARDIAC DISORDERS,,CARDIAC DISORDERS,,SEVERE,false,,NONE,NOT RECOVERED/NOT RESOLVED,false,false,false,false,false,false,false,12/18/2013,2013-12-18,,-2,,,-1
CDISCPILOT01,AE,01-703-1182,1,E05,APPLICATION SITE ERYTHEMA,APPLICATION SITE REDNESS,,APPLICATION SITE ERYTHEMA,,HLT_0617,,HLGT_0152,,GENERAL DISORDERS AND ADMINISTRATION SITE CONDITIONS,,GENERAL DISORDERS AND ADMINISTRATION SITE CONDITIONS,,MILD,false,,POSSIBLE,NOT RECOVERED/NOT RESOLVED,false,false,false,false,false,false,false,10/31/2013,2013-10-31,,15,,,2
CDISCPILOT01,AE,01-703-1182,2,E05,APPLICATION SITE ERYTHEMA,APPLICATION SITE REDNESS,,APPLICATION SITE ERYTHEMA,,HLT_0617,,HLGT_0152,,GENERAL DISORDERS AND ADMINISTRATION SITE CONDITIONS,,GENERAL DISORDERS AND ADMINISTRATION SITE CONDITIONS,,MODERATE,false,,POSSIBLE,NOT RECOVERED/NOT RESOLVED,false,false,false,false,false,false,false,11/28/2013,2013-10-31,,15,,,2
CDISCPILOT01,AE,01-703-1182,3,E07,SOMNOLENCE,DROWSINESS,,SOMNOLENCE,,HLT_0160,,HLGT_0254,,NERVOUS SYSTEM DISORDERS,,NERVOUS SYSTEM DISORDERS,,MILD,false,,REMOTE,NOT RECOVERED/NOT RESOLVED,false,false,false,false,false,false,false,11/28/2013,2013-11-22,,37,,,5
CDISCPILOT01,AE,01-703-1182,4,E07,SOMNOLENCE,DROWSINESS,,SOMNOLENCE,,HLT_0160,,HLGT_0254,,NERVOUS SYSTEM DISORDERS,,NERVOUS SYSTEM DISORDERS,,MODERATE,false,,REMOTE,NOT RECOVERED/NOT RESOLVED,false,false,false,false,false,false,false,12/12/2013,2013-11-22,,37,,,5
CDISCPILOT01,AE,01-703-1210,2,E04,DECREASED APPETITE,DECREASED APPETITE,,DECREASED APPETITE,,HLT_0574,,HLGT_0231,,METABOLISM AND NUTRITION DISORDERS,,METABOLISM AND NUTRITION DISORDERS,,MILD,false,,POSSIBLE,NOT RECOVERED/NOT RESOLVED,false,false,false,false,false,false,false,5/10/2013,2013-05-04,,50,,,7
CDISCPILOT01,AE,01-703-1210,3,E04,DECREASED APPETITE,DECREASED APPETITE,,DECREASED APPETITE,,HLT_0574,,HLGT_0231,,METABOLISM AND NUTRITION DISORDERS,,METABOLISM AND NUTRITION DISORDERS,,MODERATE,false,,POSSIBLE,NOT RECOVERED/NOT RESOLVED,false,false,false,false,false,false,false,8/24/2013,2013-05-04,,50,,,7
CDISCPILOT01,AE,01-703-1210,1,E01,DISORIENTATION,DISORIENTATION,,DISORIENTATION,,HLT_0299,,HLGT_0307,,PSYCHIATRIC DISORDERS,,PSYCHIATRIC DISORDERS,,MILD,false,,REMOTE,NOT RECOVERED/NOT RESOLVED,false,false,false,false,false,false,false,4/12/2013,2013-04-02,,18,,,2
CDISCPILOT01,AE,01-703-1258,4,E08,APPLICATION SITE DERMATITIS,APPLICATION SITE RASH,,APPLICATION SITE DERMATITIS,,HLT_0343,,HLGT_0241,,GENERAL DISORDERS AND ADMINISTRATION SITE CONDITIONS,,GENERAL DISORDERS AND ADMINISTRATION SITE CONDITIONS,,MILD,false,,PROBABLE,NOT RECOVERED/NOT RESOLVED,false,false,false,false,false,false,false,9/4/2012,2012-09-04,1/25/2013 03:00,47,190,,6
CDISCPILOT01,AE,01-703-1258,6,E08,APPLICATION SITE DERMATITIS,APPLICATION SITE RASH,,APPLICATION SITE DERMATITIS,,HLT_0343,,HLGT_0241,,GENERAL DISORDERS AND ADMINISTRATION SITE CONDITIONS,,GENERAL DISORDERS AND ADMINISTRATION SITE CONDITIONS,,MODERATE,false,,PROBABLE,NOT RECOVERED/NOT RESOLVED,false,false,false,false,false,false,false,9/14/2012,2012-09-04,1/25/2013 03:00,47,190,,6
CDISCPILOT01,AE,01-703-1258,7,E08,APPLICATION SITE DERMATITIS,APPLICATION SITE RASH,,APPLICATION SITE DERMATITIS,,HLT_0343,,HLGT_0241,,GENERAL DISORDERS AND ADMINISTRATION SITE CONDITIONS,,GENERAL DISORDERS AND ADMINISTRATION SITE CONDITIONS,,MILD,false,,PROBABLE,RECOVERED/RESOLVED,false,false,false,false,false,false,false,1/28/2013,2012-09-04,1/25/2013 03:00,47,190,,6
CDISCPILOT01,AE,01-703-1258,2,E06,DIZZINESS,DIZZINESS,,DIZZINESS,,HLT_0619,,HLGT_0751,,NERVOUS SYSTEM DISORDERS,,NERVOUS SYSTEM DISORDERS,,MODERATE,false,,NONE,NOT RECOVERED/NOT RESOLVED,false,false,false,false,false,false,false,9/4/2012,2001,,,,,
CDISCPILOT01,AE,01-703-1258,5,E06,DIZZINESS,DIZZINESS,,DIZZINESS,,HLT_0619,,HLGT_0751,,NERVOUS SYSTEM DISORDERS,,NERVOUS SYSTEM DISORDERS,,MILD,false,,NONE,NOT RECOVERED/NOT RESOLVED,false,false,false,false,false,false,false,9/14/2012,2001,,,,,
CDISCPILOT01,AE,01-703-1258,1,E07,UPPER RESPIRATORY TRACT INFECTION,UPPER RESPIRATORY INFECTION,,UPPER RESPIRATORY TRACT INFECTION,,HLT_0520,,HLGT_0489,,INFECTIONS AND INFESTATIONS,,INFECTIONS AND INFESTATIONS,,MILD,false,,NONE,NOT RECOVERED/NOT RESOLVED,false,false,false,false,false,false,false,8/17/2012,2012-08-11,8/19/2012 00:00,23,31,,3
CDISCPILOT01,AE,01-703-1258,3,E07,UPPER RESPIRATORY TRACT INFECTION,UPPER RESPIRATORY INFECTION,,UPPER RESPIRATORY TRACT INFECTION,,HLT_0520,,HLGT_0489,,INFECTIONS AND INFESTATIONS,,INFECTIONS AND INFESTATIONS,,MILD,false,,NONE,RECOVERED/RESOLVED,false,false,false,false,false,false,false,9/4/2012,2012-08-11,8/19/2012 00:00,23,31,,3
CDISCPILOT01,AE,01-703-1295,1,E06,ARTHRITIS,ARTHRITIS,,ARTHRITIS,,HLT_0019,,HLGT_0587,,MUSCULOSKELETAL AND CONNECTIVE TISSUE DISORDERS,,MUSCULOSKELETAL AND CONNECTIVE TISSUE DISORDERS,,MODERATE,false,,NONE,NOT RECOVERED/NOT RESOLVED,false,false,false,false,false,false,false,1/1/2014,2013-12-28,,38,,,5
CDISCPILOT01,AE,01-703-1299,3,E01,GLAUCOMA,GLAUCOMA,,GLAUCOMA,,HLT_0556,,HLGT_0734,,EYE DISORDERS,,EYE DISORDERS,,MODERATE,false,,NONE,NOT RECOVERED/NOT RESOLVED,false,false,false,false,false,false,false,3/1/2013,1992,,,,,
CDISCPILOT01,AE,01-703-1299,4,E05,HYPOTENSION,HYPOTENSION,,HYPOTENSION,,HLT_0761,,HLGT_0412,,VASCULAR DISORDERS,,VASCULAR DISORDERS,,MILD,false,,REMOTE,NOT RECOVERED/NOT RESOLVED,false,false,false,false,false,false,false,3/1/2013,2013-03-01,,171,,,24
CDISCPILOT01,AE,01-703-1299,6,E05,HYPOTENSION,HYPOTENSION,,HYPOTENSION,,HLT_0761,,HLGT_0412,,VASCULAR DISORDERS,,VASCULAR DISORDERS,,MODERATE,false,,REMOTE,NOT RECOVERED/NOT RESOLVED,false,false,false,false,false,false,false,3/13/2013,2013-03-01,,171,,,24
CDISCPILOT01,AE,01-703-1299,8,E07,MYOCARDIAL INFARCTION,MYOCARDIAL INFARCTION,,MYOCARDIAL INFARCTION,,HLT_0649,,HLGT_0688,,CARDIAC DISORDERS,,CARDIAC DISORDERS,,MODERATE,false,,REMOTE,NOT RECOVERED/NOT RESOLVED,false,false,false,false,false,false,false,3/13/2013,2013-03-13,,183,,,26
CDISCPILOT01,AE,01-703-1299,5,E06,TACHYCARDIA,TACHYCARDIA,,TACHYCARDIA,,HLT_0082,,HLGT_0574,,CARDIAC DISORDERS,,CARDIAC DISORDERS,,MILD,false,,REMOTE,NOT RECOVERED/NOT RESOLVED,false,false,false,false,false,false,false,3/1/2013,2013-03-01,,171,,,24
CDISCPILOT01,AE,01-703-1299,7,E06,TACHYCARDIA,TACHYCARDIA,,TACHYCARDIA,,HLT_0082,,HLGT_0574,,CARDIAC DISORDERS,,CARDIAC DISORDERS,,MODERATE,false,,REMOTE,NOT RECOVERED/NOT RESOLVED,false,false,false,false,false,false,false,3/13/2013,2013-03-01,,171,,,24
CDISCPILOT01,AE,01-703-1299,1,E02,UPPER RESPIRATORY TRACT INFECTION,UPPER RESPIRATORY INFECTION,,UPPER RESPIRATORY TRACT INFECTION,,HLT_0520,,HLGT_0489,,INFECTIONS AND INFESTATIONS,,INFECTIONS AND INFESTATIONS,,MILD,false,,NONE,NOT RECOVERED/NOT RESOLVED,false,false,false,false,false,false,false,9/28/2012,2012-09-27,10/6/2012 00:00,16,25,,2
CDISCPILOT01,AE,01-703-1299,2,E02,UPPER RESPIRATORY TRACT INFECTION,UPPER RESPIRATORY INFECTION,,UPPER RESPIRATORY TRACT INFECTION,,HLT_0520,,HLGT_0489,,INFECTIONS AND INFESTATIONS,,INFECTIONS AND INFESTATIONS,,MILD,false,,NONE,RECOVERED/RESOLVED,false,false,false,false,false,false,false,10/10/2012,2012-09-27,10/6/2012 00:00,16,25,,2
CDISCPILOT01,AE,01-703-1335,1,E01,ATRIOVENTRICULAR BLOCK SECOND DEGREE,AV BLOCK SECOND DEGREE,,ATRIOVENTRICULAR BLOCK SECOND DEGREE,,HLT_0415,,HLGT_0086,,CARDIAC DISORDERS,,CARDIAC DISORDERS,,MILD,false,,NONE,NOT RECOVERED/NOT RESOLVED,false,false,false,false,false,false,false,3/15/2014,2014-03-15,3/30/2014 04:00,-2,14,,-1
CDISCPILOT01,AE,01-703-1335,2,E01,ATRIOVENTRICULAR BLOCK SECOND DEGREE,AV BLOCK SECOND DEGREE,,ATRIOVENTRICULAR BLOCK SECOND DEGREE,,HLT_0415,,HLGT_0086,,CARDIAC DISORDERS,,CARDIAC DISORDERS,,MILD,false,,NONE,RECOVERED/RESOLVED,false,false,false,false,false,false,false,3/31/2014,2014-03-15,3/30/2014 04:00,-2,14,,-1
CDISCPILOT01,AE,01-703-1403,4,E03,CHEST DISCOMFORT,CHEST TIGHTNESS,,CHEST DISCOMFORT,,HLT_0593,,HLGT_0441,,GENERAL DISORDERS AND ADMINISTRATION SITE CONDITIONS,,GENERAL DISORDERS AND ADMINISTRATION SITE CONDITIONS,,MILD,false,,PROBABLE,RECOVERED/RESOLVED,false,false,false,false,false,false,false,12/19/2012,2012-12-15,12/16/2012 03:00,4,5,,0
CDISCPILOT01,AE,01-703-1403,2,E01,DIARRHOEA,DIARRHEA,,DIARRHOEA,,HLT_0148,,HLGT_0588,,GASTROINTESTINAL DISORDERS,,GASTROINTESTINAL DISORDERS,,MODERATE,false,,PROBABLE,RECOVERED/RESOLVED,false,false,false,false,false,false,false,12/19/2012,2012-12-13,12/14/2012 03:00,2,3,,0
CDISCPILOT01,AE,01-703-1403,3,E02,VOMITING,VOMITING,,VOMITING,,HLT_0016,,HLGT_0350,,GASTROINTESTINAL DISORDERS,,GASTROINTESTINAL DISORDERS,,MODERATE,false,,PROBABLE,RECOVERED/RESOLVED,false,false,false,false,false,false,false,12/19/2012,2012-12-13,12/14/2012 03:00,2,3,,0
CDISCPILOT01,AE,01-703-1403,1,E07,WEIGHT DECREASED,WEIGHT LOSS,,WEIGHT DECREASED,,HLT_0158,,HLGT_0778,,INVESTIGATIONS,,INVESTIGATIONS,,MODERATE,false,,NONE,NOT RECOVERED/NOT RESOLVED,false,false,false,false,false,false,false,12/19/2012,2012-12-12,12/19/2012 03:00,1,8,,0
CDISCPILOT01,AE,01-703-1403,5,E07,WEIGHT DECREASED,WEIGHT LOSS,,WEIGHT DECREASED,,HLT_0158,,HLGT_0778,,INVESTIGATIONS,,INVESTIGATIONS,,MODERATE,false,,NONE,RECOVERED/RESOLVED,false,false,false,false,false,false,false,1/8/2013,2012-12-12,12/19/2012 03:00,1,8,,0
CDISCPILOT01,AE,01-703-1439,1,E01,APPLICATION SITE IRRITATION,APPLICATION SITE IRRITATION,,APPLICATION SITE IRRITATION,,HLT_0061,,HLGT_0346,,GENERAL DISORDERS AND ADMINISTRATION SITE CONDITIONS,,GENERAL DISORDERS AND ADMINISTRATION SITE CONDITIONS,,MILD,false,,PROBABLE,NOT RECOVERED/NOT RESOLVED,false,false,false,false,false,false,false,5/5/2014,2014-04-24,,44,,,6
CDISCPILOT01,AE,01-703-1439,2,E01,APPLICATION SITE IRRITATION,APPLICATION SITE IRRITATION,,APPLICATION SITE IRRITATION,,HLT_0061,,HLGT_0346,,GENERAL DISORDERS AND ADMINISTRATION SITE CONDITIONS,,GENERAL DISORDERS AND ADMINISTRATION SITE CONDITIONS,,MODERATE,false,,PROBABLE,NOT RECOVERED/NOT RESOLVED,false,false,false,false,false,false,false,6/30/2014,2014-04-24,,44,,,6
CDISCPILOT01,AE,01-704-1008,1,E03,HYPERHIDROSIS,SWEATING INCREASED,,HYPERHIDROSIS,,HLT_0587,,HLGT_0005,,SKIN AND SUBCUTANEOUS TISSUE DISORDERS,,SKIN AND SUBCUTANEOUS TISSUE DISORDERS,,MILD,false,,POSSIBLE,NOT RECOVERED/NOT RESOLVED,false,false,false,false,false,false,false,2/9/2013,2013-01-30,,18,,,2
CDISCPILOT01,AE,01-704-1008,3,E05,SINUS BRADYCARDIA,SINUS BRADYCARDIA,,SINUS BRADYCARDIA,,HLT_0644,,HLGT_0500,,CARDIAC DISORDERS,,CARDIAC DISORDERS,,MODERATE,false,,NONE,NOT RECOVERED/NOT RESOLVED,false,false,false,false,false,false,false,2/25/2013,2013-02-25,,44,,,6
CDISCPILOT01,AE,01-704-1008,2,E06,TRANSIENT ISCHAEMIC ATTACK,TRANSIENT ISCHEMIC ATTACKS,,TRANSIENT ISCHAEMIC ATTACK,,HLT_0041,,HLGT_0433,,NERVOUS SYSTEM DISORDERS,,NERVOUS SYSTEM DISORDERS,,SEVERE,false,,NONE,RECOVERED/RESOLVED,false,false,false,false,true,false,false,2/25/2013,2013-02-21,2/21/2013 03:00,40,40,,5
CDISCPILOT01,AE,01-704-1009,5,E07,DIZZINESS,DIZZINESS,,DIZZINESS,,HLT_0619,,HLGT_0751,,NERVOUS SYSTEM DISORDERS,,NERVOUS SYSTEM DISORDERS,,MILD,false,,REMOTE,NOT RECOVERED/NOT RESOLVED,false,false,false,false,false,false,false,10/2/2013,2013-09-17,,22,,,3
CDISCPILOT01,AE,01-704-1009,1,E09,FATIGUE,FATIGUE,,FATIGUE,,HLT_0043,,HLGT_0181,,GENERAL DISORDERS AND ADMINISTRATION SITE CONDITIONS,,GENERAL DISORDERS AND ADMINISTRATION SITE CONDITIONS,,MILD,false,,REMOTE,NOT RECOVERED/NOT RESOLVED,false,false,false,false,false,false,false,9/14/2013,2013-09-05,,10,,,1
CDISCPILOT01,AE,01-704-1009,2,E10,MALAISE,MALAISE,,MALAISE,,HLT_0456,,HLGT_0178,,GENERAL DISORDERS AND ADMINISTRATION SITE CONDITIONS,,GENERAL DISORDERS AND ADMINISTRATION SITE CONDITIONS,,MILD,false,,POSSIBLE,NOT RECOVERED/NOT RESOLVED,false,false,false,false,false,false,false,9/14/2013,2013-09-05,9/27/2013 00:00,10,32,,1
CDISCPILOT01,AE,01-704-1009,4,E10,MALAISE,MALAISE,,MALAISE,,HLT_0456,,HLGT_0178,,GENERAL DISORDERS AND ADMINISTRATION SITE CONDITIONS,,GENERAL DISORDERS AND ADMINISTRATION SITE CONDITIONS,,MILD,false,,POSSIBLE,RECOVERED/RESOLVED,false,false,false,false,false,false,false,10/2/2013,2013-09-05,9/27/2013 00:00,10,32,,1
CDISCPILOT01,AE,01-704-1009,6,E08,NAUSEA,NAUSEA,,NAUSEA,,HLT_0742,,HLGT_0326,,GASTROINTESTINAL DISORDERS,,GASTROINTESTINAL DISORDERS,,MILD,false,,POSSIBLE,RECOVERED/RESOLVED,false,false,false,false,false,false,false,10/2/2013,2013-09-22,9/23/2013 00:00,27,28,,3
CDISCPILOT01,AE,01-704-1009,3,E03,RASH,RASH,,RASH,,HLT_0762,,HLGT_0198,,SKIN AND SUBCUTANEOUS TISSUE DISORDERS,,SKIN AND SUBCUTANEOUS TISSUE DISORDERS,,MILD,false,,POSSIBLE,NOT RECOVERED/NOT RESOLVED,false,false,false,false,false,false,false,9/14/2013,2013-09-14,,19,,,2
CDISCPILOT01,AE,01-704-1010,6,E07,ARTHRALGIA,KNEE PAIN,,ARTHRALGIA,,HLT_0375,,HLGT_0610,,MUSCULOSKELETAL AND CONNECTIVE TISSUE DISORDERS,,MUSCULOSKELETAL AND CONNECTIVE TISSUE DISORDERS,,MILD,false,,NONE,NOT RECOVERED/NOT RESOLVED,false,false,false,false,false,false,false,7/9/2014,2014-07-06,,136,,,19
CDISCPILOT01,AE,01-704-1010,7,E08,CONTUSION,BRUISE OF HEAD,,CONTUSION,,HLT_0713,,HLGT_0381,,"INJURY, POISONING AND PROCEDURAL COMPLICATIONS",,"INJURY, POISONING AND PROCEDURAL COMPLICATIONS",,MILD,false,,NONE,NOT RECOVERED/NOT RESOLVED,false,false,false,false,false,false,false,7/9/2014,2014-07-06,,136,,,19
CDISCPILOT01,AE,01-704-1010,1,E01,CYSTITIS,BLADDER INFECTION,,CYSTITIS,,HLT_0739,,HLGT_0129,,INFECTIONS AND INFESTATIONS,,INFECTIONS AND INFESTATIONS,,MILD,false,,NONE,RECOVERED/RESOLVED,false,false,false,false,false,false,false,3/8/2014,2014-02-27,3/6/2014 03:00,7,14,,1
CDISCPILOT01,AE,01-704-1010,3,E04,DIARRHOEA,DIARRHEA,,DIARRHOEA,,HLT_0148,,HLGT_0588,,GASTROINTESTINAL DISORDERS,,GASTROINTESTINAL DISORDERS,,MILD,false,,NONE,RECOVERED/RESOLVED,false,false,false,false,false,false,false,7/9/2014,2014-07-05,7/6/2014 00:00,135,136,,19
CDISCPILOT01,AE,01-704-1010,4,E05,EXCORIATION,ABRASION NOS,,EXCORIATION,,HLT_0738,,HLGT_0511,,"INJURY, POISONING AND PROCEDURAL COMPLICATIONS",,"INJURY, POISONING AND PROCEDURAL COMPLICATIONS",,MILD,false,,NONE,NOT RECOVERED/NOT RESOLVED,false,false,false,false,false,false,false,7/9/2014,2014-07-06,,136,,,19
CDISCPILOT01,AE,01-704-1010,5,E06,SKIN LACERATION,SKIN TEAR,,SKIN LACERATION,,HLT_0075,,HLGT_0118,,"INJURY, POISONING AND PROCEDURAL COMPLICATIONS",,"INJURY, POISONING AND PROCEDURAL COMPLICATIONS",,MILD,false,,NONE,NOT RECOVERED/NOT RESOLVED,false,false,false,false,false,false,false,7/9/2014,2014-07-06,,136,,,19
CDISCPILOT01,AE,01-704-1010,2,E03,VOMITING,VOMITING,,VOMITING,,HLT_0016,,HLGT_0350,,GASTROINTESTINAL DISORDERS,,GASTROINTESTINAL DISORDERS,,MILD,false,,NONE,RECOVERED/RESOLVED,false,false,false,false,false,false,false,7/9/2014,2014-07-05,7/6/2014 00:00,135,136,,19
CDISCPILOT01,AE,01-704-1017,4,E16,CARDIAC DISORDER,CARDIAC DISORDER,,CARDIAC DISORDER,,HLT_0507,,HLGT_0126,,CARDIAC DISORDERS,,CARDIAC DISORDERS,,MILD,false,,NONE,NOT RECOVERED/NOT RESOLVED,false,false,false,false,false,false,false,11/9/2013,2013-11-01,,27,,,3
CDISCPILOT01,AE,01-704-1017,3,E13,INFLUENZA,FLU,,INFLUENZA,,HLT_0125,,HLGT_0081,,INFECTIONS AND INFESTATIONS,,INFECTIONS AND INFESTATIONS,,MILD,false,,NONE,RECOVERED/RESOLVED,false,false,false,false,false,false,false,11/9/2013,2013-11-01,11/8/2013 03:00,27,34,,3
CDISCPILOT01,AE,01-704-1017,1,E14,MYOCARDIAL INFARCTION,MYOCARDIAL INFARCTION,,MYOCARDIAL INFARCTION,,HLT_0649,,HLGT_0688,,CARDIAC DISORDERS,,CARDIAC DISORDERS,,MILD,false,,NONE,NOT RECOVERED/NOT RESOLVED,false,false,false,false,false,false,false,10/19/2013,2013-10-19,,14,,,2
CDISCPILOT01,AE,01-704-1017,6,E12,PRURITUS,ITCHING,,PRURITUS,,HLT_0778,,HLGT_0695,,SKIN AND SUBCUTANEOUS TISSUE DISORDERS,,SKIN AND SUBCUTANEOUS TISSUE DISORDERS,,MILD,false,,PROBABLE,NOT RECOVERED/NOT RESOLVED,false,false,false,false,false,false,false,11/9/2013,2013-11-05,11/22/2013 03:00,31,48,,4
CDISCPILOT01,AE,01-704-1017,8,E12,PRURITUS,ITCHING,,PRURITUS,,HLT_0778,,HLGT_0695,,SKIN AND SUBCUTANEOUS TISSUE DISORDERS,,SKIN AND SUBCUTANEOUS TISSUE DISORDERS,,MILD,false,,PROBABLE,RECOVERED/RESOLVED,false,false,false,false,false,false,false,11/24/2013,2013-11-05,11/22/2013 03:00,31,48,,4
CDISCPILOT01,AE,01-704-1017,5,E11,RASH,RASH,,RASH,,HLT_0762,,HLGT_0198,,SKIN AND SUBCUTANEOUS TISSUE DISORDERS,,SKIN AND SUBCUTANEOUS TISSUE DISORDERS,,MILD,false,,PROBABLE,NOT RECOVERED/NOT RESOLVED,false,false,false,false,false,false,false,11/9/2013,2013-11-05,11/22/2013 03:00,31,48,,4
CDISCPILOT01,AE,01-704-1017,7,E11,RASH,RASH,,RASH,,HLT_0762,,HLGT_0198,,SKIN AND SUBCUTANEOUS TISSUE DISORDERS,,SKIN AND SUBCUTANEOUS TISSUE DISORDERS,,MILD,false,,PROBABLE,RECOVERED/RESOLVED,false,false,false,false,false,false,false,11/24/2013,2013-11-05,11/22/2013 03:00,31,48,,4
CDISCPILOT01,AE,01-704-1017,2,E15,VENTRICULAR SEPTAL DEFECT,VENTRICULAR SEPTAL DEFECT,,VENTRICULAR SEPTAL DEFECT,,HLT_0589,,HLGT_0747,,"CONGENITAL, FAMILIAL AND GENETIC DISORDERS",,"CONGENITAL, FAMILIAL AND GENETIC DISORDERS",,MILD,false,,NONE,NOT RECOVERED/NOT RESOLVED,false,false,false,false,false,false,false,10/19/2013,2013-10-19,,14,,,2
CDISCPILOT01,AE,01-704-1025,3,E05,ELECTROCARDIOGRAM ST SEGMENT DEPRESSION,ST SEGMENT DEPRESSED,,ELECTROCARDIOGRAM ST SEGMENT DEPRESSION,,HLT_0610,,HLGT_0220,,INVESTIGATIONS,,INVESTIGATIONS,,MILD,false,,POSSIBLE,NOT RECOVERED/NOT RESOLVED,false,false,false,false,false,false,false,10/11/2013,2013-10-11,10/25/2013 00:00,15,29,,2
CDISCPILOT01,AE,01-704-1025,5,E05,ELECTROCARDIOGRAM ST SEGMENT DEPRESSION,ST SEGMENT DEPRESSED,,ELECTROCARDIOGRAM ST SEGMENT DEPRESSION,,HLT_0610,,HLGT_0220,,INVESTIGATIONS,,INVESTIGATIONS,,MILD,false,,POSSIBLE,RECOVERED/RESOLVED,false,false,false,false,false,false,false,11/29/2013,2013-10-11,10/25/2013 00:00,15,29,,2
CDISCPILOT01,AE,01-704-1025,2,E02,PALPITATIONS,PALPITATIONS,,PALPITATIONS,,HLT_0493,,HLGT_0593,,CARDIAC DISORDERS,,CARDIAC DISORDERS,,MODERATE,false,,REMOTE,RECOVERED/RESOLVED,false,false,false,false,false,false,false,10/11/2013,2013-09-28,9/30/2013 00:00,2,4,,0
CDISCPILOT01,AE,01-704-1025,1,E01,VERTIGO,VERTIGO,,VERTIGO,,HLT_0255,,HLGT_0147,,EAR AND LABYRINTH DISORDERS,,EAR AND LABYRINTH DISORDERS,,MODERATE,false,,POSSIBLE,RECOVERED/RESOLVED,false,false,false,false,false,false,false,10/11/2013,2013-09-28,9/30/2013 00:00,2,4,,0
CDISCPILOT01,AE,01-704-1025,4,E06,WOLFF-PARKINSON-WHITE SYNDROME,WOLFF-PARKINSON-WHITE SYNDROME,,WOLFF-PARKINSON-WHITE SYNDROME,,HLT_0612,,HLGT_0218,,CARDIAC DISORDERS,,CARDIAC DISORDERS,,MILD,false,,POSSIBLE,NOT RECOVERED/NOT RESOLVED,false,false,false,false,false,false,false,10/25/2013,2013-10-25,11/29/2013 03:00,29,64,,4
CDISCPILOT01,AE,01-704-1025,6,E06,WOLFF-PARKINSON-WHITE SYNDROME,WOLFF-PARKINSON-WHITE SYNDROME,,WOLFF-PARKINSON-WHITE SYNDROME,,HLT_0612,,HLGT_0218,,CARDIAC DISORDERS,,CARDIAC DISORDERS,,MILD,false,,POSSIBLE,RECOVERED/RESOLVED,false,false,false,false,false,false,false,11/29/2013,2013-10-25,11/29/2013 03:00,29,64,,4
CDISCPILOT01,AE,01-704-1065,1,E13,ABDOMINAL DISCOMFORT,ABDOMINAL DISCOMFORT,,ABDOMINAL DISCOMFORT,,HLT_0012,,HLGT_0332,,GASTROINTESTINAL DISORDERS,,GASTROINTESTINAL DISORDERS,,MILD,false,,REMOTE,NOT RECOVERED/NOT RESOLVED,false,false,false,false,false,false,false,11/7/2013,2013-10-26,,3,,,0
CDISCPILOT01,AE,01-704-1065,4,E12,APPLICATION SITE IRRITATION,APPLICATION SITE BURNING,,APPLICATION SITE IRRITATION,,HLT_0061,,HLGT_0346,,GENERAL DISORDERS AND ADMINISTRATION SITE CONDITIONS,,GENERAL DISORDERS AND ADMINISTRATION SITE CONDITIONS,,MILD,false,,PROBABLE,NOT RECOVERED/NOT RESOLVED,false,false,false,false,false,false,false,11/25/2013,2013-11-09,,17,,,2
CDISCPILOT01,AE,01-704-1065,3,E10,APPLICATION SITE PRURITUS,APPLICATION SITE ITCHING,,APPLICATION SITE PRURITUS,,HLT_0317,,HLGT_0338,,GENERAL DISORDERS AND ADMINISTRATION SITE CONDITIONS,,GENERAL DISORDERS AND ADMINISTRATION SITE CONDITIONS,,MODERATE,false,,PROBABLE,NOT RECOVERED/NOT RESOLVED,false,false,false,false,false,false,false,11/7/2013,2013-10-27,,4,,,0
CDISCPILOT01,AE,01-704-1065,7,E16,CHILLS,CHILLS,,CHILLS,,HLT_0586,,HLGT_0161,,GENERAL DISORDERS AND ADMINISTRATION SITE CONDITIONS,,GENERAL DISORDERS AND ADMINISTRATION SITE CONDITIONS,,MILD,false,,REMOTE,RECOVERED/RESOLVED,false,false,false,false,false,false,false,11/25/2013,2013-11-17,11/17/2013 03:00,25,25,,3
CDISCPILOT01,AE,01-704-1065,9,E18,DIARRHOEA,DIARRHEA,,DIARRHOEA,,HLT_0148,,HLGT_0588,,GASTROINTESTINAL DISORDERS,,GASTROINTESTINAL DISORDERS,,MILD,false,,REMOTE,RECOVERED/RESOLVED,false,false,false,false,false,false,false,12/20/2013,2013-12-15,12/15/2013 03:00,53,53,,7
CDISCPILOT01,AE,01-704-1065,8,E17,DIZZINESS,DIZZINESS,,DIZZINESS,,HLT_0619,,HLGT_0751,,NERVOUS SYSTEM DISORDERS,,NERVOUS SYSTEM DISORDERS,,MILD,false,,REMOTE,RECOVERED/RESOLVED,false,false,false,false,false,false,false,11/25/2013,2013-11-17,11/17/2013 03:00,25,25,,3
CDISCPILOT01,AE,01-704-1065,6,E15,HYPERHIDROSIS,PERSPIRATION EXCESSIVE,,HYPERHIDROSIS,,HLT_0587,,HLGT_0005,,SKIN AND SUBCUTANEOUS TISSUE DISORDERS,,SKIN AND SUBCUTANEOUS TISSUE DISORDERS,,MILD,false,,POSSIBLE,NOT RECOVERED/NOT RESOLVED,false,false,false,false,false,false,false,11/25/2013,2013-11-09,,17,,,2
CDISCPILOT01,AE,01-704-1065,5,E14,MALAISE,MALAISE,,MALAISE,,HLT_0456,,HLGT_0178,,GENERAL DISORDERS AND ADMINISTRATION SITE CONDITIONS,,GENERAL DISORDERS AND ADMINISTRATION SITE CONDITIONS,,MILD,false,,POSSIBLE,NOT RECOVERED/NOT RESOLVED,false,false,false,false,false,false,false,11/25/2013,2013-11-09,,17,,,2
CDISCPILOT01,AE,01-704-1065,2,E07,RASH,RASH,,RASH,,HLT_0762,,HLGT_0198,,SKIN AND SUBCUTANEOUS TISSUE DISORDERS,,SKIN AND SUBCUTANEOUS TISSUE DISORDERS,,MILD,false,,PROBABLE,NOT RECOVERED/NOT RESOLVED,false,false,false,false,false,false,false,11/7/2013,2013-10-27,,4,,,0
CDISCPILOT01,AE,01-704-1065,10,E19,SINUS BRADYCARDIA,BRADYCARDIA SINUS,,SINUS BRADYCARDIA,,HLT_0644,,HLGT_0500,,CARDIAC DISORDERS,,CARDIAC DISORDERS,,MILD,false,,NONE,NOT RECOVERED/NOT RESOLVED,false,false,false,false,false,false,false,12/24/2013,2013-12-24,,62,,,8
CDISCPILOT01,AE,01-704-1074,2,E09,ERYTHEMA,SKIN RED,,ERYTHEMA,,HLT_0284,,HLGT_0192,,SKIN AND SUBCUTANEOUS TISSUE DISORDERS,,SKIN AND SUBCUTANEOUS TISSUE DISORDERS,,MILD,false,,PROBABLE,NOT RECOVERED/NOT RESOLVED,false,false,false,false,false,false,false,2/9/2014,2014-02-09,,19,,,2
CDISCPILOT01,AE,01-704-1074,1,E08,PRURITUS,ITCHING,,PRURITUS,,HLT_0778,,HLGT_0695,,SKIN AND SUBCUTANEOUS TISSUE DISORDERS,,SKIN AND SUBCUTANEOUS TISSUE DISORDERS,,MILD,false,,PROBABLE,NOT RECOVERED/NOT RESOLVED,false,false,false,false,false,false,false,1/22/2014,2014-01-22,,1,,,0
CDISCPILOT01,AE,01-704-1093,1,E02,BLOOD GLUCOSE INCREASED,GLUCOSE INCREASED,,BLOOD GLUCOSE INCREASED,,HLT_0450,,HLGT_0188,,INVESTIGATIONS,,INVESTIGATIONS,,MILD,false,,NONE,NOT RECOVERED/NOT RESOLVED,false,false,false,false,false,false,false,3/30/2013,2013-03-30,4/13/2013 00:00,16,30,,2
CDISCPILOT01,AE,01-704-1093,2,E02,BLOOD GLUCOSE INCREASED,GLUCOSE INCREASED,,BLOOD GLUCOSE INCREASED,,HLT_0450,,HLGT_0188,,INVESTIGATIONS,,INVESTIGATIONS,,MILD,false,,NONE,RECOVERED/RESOLVED,false,false,false,false,false,false,false,4/17/2013,2013-03-30,4/13/2013 00:00,16,30,,2
CDISCPILOT01,AE,01-704-1093,4,E06,PRURITUS,ITCHING,,PRURITUS,,HLT_0778,,HLGT_0695,,SKIN AND SUBCUTANEOUS TISSUE DISORDERS,,SKIN AND SUBCUTANEOUS TISSUE DISORDERS,,MILD,false,,PROBABLE,NOT RECOVERED/NOT RESOLVED,false,false,false,false,false,false,false,5/11/2013,2013-05-04,,51,,,7
CDISCPILOT01,AE,01-704-1093,3,E05,RASH,RASH,,RASH,,HLT_0762,,HLGT_0198,,SKIN AND SUBCUTANEOUS TISSUE DISORDERS,,SKIN AND SUBCUTANEOUS TISSUE DISORDERS,,MILD,false,,PROBABLE,NOT RECOVERED/NOT RESOLVED,false,false,false,false,false,false,false,5/11/2013,2013-05-04,,51,,,7
CDISCPILOT01,AE,01-704-1114,1,E06,ERYTHEMA,REDNESS,,ERYTHEMA,,HLT_0284,,HLGT_0192,,SKIN AND SUBCUTANEOUS TISSUE DISORDERS,,SKIN AND SUBCUTANEOUS TISSUE DISORDERS,,MILD,false,,PROBABLE,RECOVERED/RESOLVED,false,false,false,false,false,false,false,3/13/2013,2013-02-21,2/23/2013 03:00,30,32,,4
CDISCPILOT01,AE,01-704-1114,5,E07,INFLUENZA,FLU,,INFLUENZA,,HLT_0125,,HLGT_0081,,INFECTIONS AND INFESTATIONS,,INFECTIONS AND INFESTATIONS,,MILD,false,,NONE,RECOVERED/RESOLVED,false,false,false,false,false,false,false,6/16/2013,2013-06-07,6/13/2013 00:00,136,142,,19
CDISCPILOT01,AE,01-704-1114,2,E03,OEDEMA,EDEMA,,OEDEMA,,HLT_0656,,HLGT_0036,,GENERAL DISORDERS AND ADMINISTRATION SITE CONDITIONS,,GENERAL DISORDERS AND ADMINISTRATION SITE CONDITIONS,,MILD,false,,PROBABLE,NOT RECOVERED/NOT RESOLVED,false,false,false,false,false,false,false,3/13/2013,2013-02-23,,32,,,4
CDISCPILOT01,AE,01-704-1114,4,E05,PRURITUS,ITCHING,,PRURITUS,,HLT_0778,,HLGT_0695,,SKIN AND SUBCUTANEOUS TISSUE DISORDERS,,SKIN AND SUBCUTANEOUS TISSUE DISORDERS,,MILD,false,,PROBABLE,NOT RECOVERED/NOT RESOLVED,false,false,false,false,false,false,false,3/26/2013,2013-03-23,,60,,,8
CDISCPILOT01,AE,01-704-1114,3,E04,RASH,RASH,,RASH,,HLT_0762,,HLGT_0198,,SKIN AND SUBCUTANEOUS TISSUE DISORDERS,,SKIN AND SUBCUTANEOUS TISSUE DISORDERS,,MILD,false,,PROBABLE,NOT RECOVERED/NOT RESOLVED,false,false,false,false,false,false,false,3/26/2013,2013-03-23,,60,,,8
CDISCPILOT01,AE,01-704-1120,2,E02,NASOPHARYNGITIS,COLD,,NASOPHARYNGITIS,,HLT_0036,,HLGT_0709,,INFECTIONS AND INFESTATIONS,,INFECTIONS AND INFESTATIONS,,MILD,false,,NONE,NOT RECOVERED/NOT RESOLVED,false,false,false,false,false,false,false,12/29/2013,2013-12-28,2/3/2014 03:00,27,64,,3
CDISCPILOT01,AE,01-704-1120,6,E02,NASOPHARYNGITIS,COLD,,NASOPHARYNGITIS,,HLT_0036,,HLGT_0709,,INFECTIONS AND INFESTATIONS,,INFECTIONS AND INFESTATIONS,,MILD,false,,NONE,RECOVERED/RESOLVED,false,false,false,false,false,false,false,3/10/2014,2013-12-28,2/3/2014 03:00,27,64,,3
CDISCPILOT01,AE,01-704-1120,4,E04,PRURITUS,ITCHING,,PRURITUS,,HLT_0778,,HLGT_0695,,SKIN AND SUBCUTANEOUS TISSUE DISORDERS,,SKIN AND SUBCUTANEOUS TISSUE DISORDERS,,MILD,false,,PROBABLE,NOT RECOVERED/NOT RESOLVED,false,false,false,false,false,false,false,1/27/2014,2014-01-27,,57,,,8
CDISCPILOT01,AE,01-704-1120,5,E04,PRURITUS,ITCHING,,PRURITUS,,HLT_0778,,HLGT_0695,,SKIN AND SUBCUTANEOUS TISSUE DISORDERS,,SKIN AND SUBCUTANEOUS TISSUE DISORDERS,,MODERATE,false,,PROBABLE,NOT RECOVERED/NOT RESOLVED,false,false,false,false,false,false,false,2/3/2014,2014-01-27,,57,,,8
CDISCPILOT01,AE,01-704-1120,1,E01,RASH,RASH,,RASH,,HLT_0762,,HLGT_0198,,SKIN AND SUBCUTANEOUS TISSUE DISORDERS,,SKIN AND SUBCUTANEOUS TISSUE DISORDERS,,MILD,false,,PROBABLE,NOT RECOVERED/NOT RESOLVED,false,false,false,false,false,false,false,12/29/2013,2013-12-23,,22,,,3
CDISCPILOT01,AE,01-704-1120,3,E01,RASH,RASH,,RASH,,HLT_0762,,HLGT_0198,,SKIN AND SUBCUTANEOUS TISSUE DISORDERS,,SKIN AND SUBCUTANEOUS TISSUE DISORDERS,,MODERATE,false,,PROBABLE,NOT RECOVERED/NOT RESOLVED,false,false,false,false,false,false,false,1/27/2014,2013-12-23,,22,,,3
CDISCPILOT01,AE,01-704-1135,1,E01,RASH,RASH,,RASH,,HLT_0762,,HLGT_0198,,SKIN AND SUBCUTANEOUS TISSUE DISORDERS,,SKIN AND SUBCUTANEOUS TISSUE DISORDERS,,MILD,false,,,NOT RECOVERED/NOT RESOLVED,false,false,false,false,false,false,false,12/11/2013,2013-12-08,,39,,,5
CDISCPILOT01,AE,01-704-1135,2,E01,RASH,RASH,,RASH,,HLT_0762,,HLGT_0198,,SKIN AND SUBCUTANEOUS TISSUE DISORDERS,,SKIN AND SUBCUTANEOUS TISSUE DISORDERS,,SEVERE,false,,,NOT RECOVERED/NOT RESOLVED,false,false,false,false,false,false,false,2/19/2014,2013-12-08,,39,,,5
CDISCPILOT01,AE,01-704-1164,1,E02,INFLUENZA,FLU,,INFLUENZA,,HLT_0125,,HLGT_0081,,INFECTIONS AND INFESTATIONS,,INFECTIONS AND INFESTATIONS,,MILD,false,,NONE,NOT RECOVERED/NOT RESOLVED,false,false,false,false,false,false,false,10/4/2012,2012-09-27,10/7/2012 00:00,9,19,,1
CDISCPILOT01,AE,01-704-1164,2,E02,INFLUENZA,FLU,,INFLUENZA,,HLT_0125,,HLGT_0081,,INFECTIONS AND INFESTATIONS,,INFECTIONS AND INFESTATIONS,,MILD,false,,NONE,RECOVERED/RESOLVED,false,false,false,false,false,false,false,10/21/2012,2012-09-27,10/7/2012 00:00,9,19,,1
CDISCPILOT01,AE,01-704-1164,3,E07,OEDEMA PERIPHERAL,SWELLING OF FEET,,OEDEMA PERIPHERAL,,HLT_0661,,HLGT_0137,,GENERAL DISORDERS AND ADMINISTRATION SITE CONDITIONS,,GENERAL DISORDERS AND ADMINISTRATION SITE CONDITIONS,,MILD,false,,NONE,RECOVERED/RESOLVED,false,false,false,false,false,false,false,2/14/2013,2013-02-04,2/13/2013 03:00,139,148,,19
CDISCPILOT01,AE,01-704-1218,1,E05,BLOOD GLUCOSE INCREASED,GLUCOSE INCREASED,,BLOOD GLUCOSE INCREASED,,HLT_0450,,HLGT_0188,,INVESTIGATIONS,,INVESTIGATIONS,,MILD,false,,NONE,NOT RECOVERED/NOT RESOLVED,false,false,false,false,false,false,false,12/30/2012,2012-12-30,,42,,,6
CDISCPILOT01,AE,01-704-1241,2,E03,DYSPNOEA,RESPIRATION LABORED,,DYSPNOEA,,HLT_0296,,HLGT_0255,,"RESPIRATORY, THORACIC AND MEDIASTINAL DISORDERS",,"RESPIRATORY, THORACIC AND MEDIASTINAL DISORDERS",,MILD,false,,NONE,NOT RECOVERED/NOT RESOLVED,false,false,false,false,false,false,false,10/9/2013,2013-09-28,,35,,,5
CDISCPILOT01,AE,01-704-1241,1,E04,RASH,RASH,,RASH,,HLT_0762,,HLGT_0198,,SKIN AND SUBCUTANEOUS TISSUE DISORDERS,,SKIN AND SUBCUTANEOUS TISSUE DISORDERS,,MODERATE,false,,NONE,NOT RECOVERED/NOT RESOLVED,false,false,false,false,false,false,false,10/9/2013,2013-08-14,,71,73,,10
CDISCPILOT01,AE,01-704-1266,4,E13,ATRIAL FIBRILLATION,ATRIAL FIBRILLATION,,ATRIAL FIBRILLATION,,HLT_0365,,HLGT_0012,,CARDIAC DISORDERS,,CARDIAC DISORDERS,,MILD,false,,NONE,NOT RECOVERED/NOT RESOLVED,false,false,false,false,false,false,false,11/8/2013,2013-11-08,12/6/2013 03:00,27,55,,3
CDISCPILOT01,AE,01-704-1266,13,E13,ATRIAL FIBRILLATION,ATRIAL FIBRILLATION,,ATRIAL FIBRILLATION,,HLT_0365,,HLGT_0012,,CARDIAC DISORDERS,,CARDIAC DISORDERS,,MILD,false,,NONE,RECOVERED/RESOLVED,false,false,false,false,false,false,false,1/3/2014,2013-11-08,12/6/2013 03:00,27,55,,3
CDISCPILOT01,AE,01-704-1266,3,E12,ATRIAL FLUTTER,ATRIAL FLUTTER,,ATRIAL FLUTTER,,HLT_0477,,HLGT_0627,,CARDIAC DISORDERS,,CARDIAC DISORDERS,,MILD,false,,NONE,NOT RECOVERED/NOT RESOLVED,false,false,false,false,false,false,false,10/27/2013,2013-10-27,11/8/2013 03:00,15,27,,2
CDISCPILOT01,AE,01-704-1266,5,E12,ATRIAL FLUTTER,ATRIAL FLUTTER,,ATRIAL FLUTTER,,HLT_0477,,HLGT_0627,,CARDIAC DISORDERS,,CARDIAC DISORDERS,,MILD,false,,NONE,RECOVERED/RESOLVED,false,false,false,false,false,false,false,11/10/2013,2013-10-27,11/8/2013 03:00,15,27,,2
CDISCPILOT01,AE,01-704-1266,7,E16,BLISTER,BLISTERING,,BLISTER,,HLT_0752,,HLGT_0267,,SKIN AND SUBCUTANEOUS TISSUE DISORDERS,,SKIN AND SUBCUTANEOUS TISSUE DISORDERS,,MILD,false,,PROBABLE,NOT RECOVERED/NOT RESOLVED,false,false,false,false,false,false,false,11/22/2013,2013-11-15,12/14/2013 03:00,34,63,,4
CDISCPILOT01,AE,01-704-1266,14,E16,BLISTER,BLISTERING,,BLISTER,,HLT_0752,,HLGT_0267,,SKIN AND SUBCUTANEOUS TISSUE DISORDERS,,SKIN AND SUBCUTANEOUS TISSUE DISORDERS,,MILD,false,,PROBABLE,RECOVERED/RESOLVED,false,false,false,false,false,false,false,1/3/2014,2013-11-15,12/14/2013 03:00,34,63,,4
CDISCPILOT01,AE,01-704-1266,2,E10,ERYTHEMA,ERYTHEMA,,ERYTHEMA,,HLT_0284,,HLGT_0192,,SKIN AND SUBCUTANEOUS TISSUE DISORDERS,,SKIN AND SUBCUTANEOUS TISSUE DISORDERS,,MILD,false,,PROBABLE,NOT RECOVERED/NOT RESOLVED,false,false,false,false,false,false,false,10/27/2013,2013-10-17,12/23/2013 03:00,5,72,,0
CDISCPILOT01,AE,01-704-1266,9,E10,ERYTHEMA,ERYTHEMA,,ERYTHEMA,,HLT_0284,,HLGT_0192,,SKIN AND SUBCUTANEOUS TISSUE DISORDERS,,SKIN AND SUBCUTANEOUS TISSUE DISORDERS,,MODERATE,false,,PROBABLE,NOT RECOVERED/NOT RESOLVED,false,false,false,false,false,false,false,12/6/2013,2013-10-17,12/23/2013 03:00,5,72,,0
CDISCPILOT01,AE,01-704-1266,12,E10,ERYTHEMA,ERYTHEMA,,ERYTHEMA,,HLT_0284,,HLGT_0192,,SKIN AND SUBCUTANEOUS TISSUE DISORDERS,,SKIN AND SUBCUTANEOUS TISSUE DISORDERS,,MODERATE,false,,PROBABLE,RECOVERED/RESOLVED,false,false,false,false,false,false,false,1/3/2014,2013-10-17,12/23/2013 03:00,5,72,,0
CDISCPILOT01,AE,01-704-1266,11,E18,ERYTHEMA,REDNESS,,ERYTHEMA,,HLT_0284,,HLGT_0192,,SKIN AND SUBCUTANEOUS TISSUE DISORDERS,,SKIN AND SUBCUTANEOUS TISSUE DISORDERS,,MILD,false,,PROBABLE,NOT RECOVERED/NOT RESOLVED,false,false,false,false,false,false,false,12/6/2013,2013-12-06,12/23/2013 03:00,55,72,,7
CDISCPILOT01,AE,01-704-1266,16,E18,ERYTHEMA,REDNESS,,ERYTHEMA,,HLT_0284,,HLGT_0192,,SKIN AND SUBCUTANEOUS TISSUE DISORDERS,,SKIN AND SUBCUTANEOUS TISSUE DISORDERS,,MILD,false,,PROBABLE,RECOVERED/RESOLVED,false,false,false,false,false,false,false,1/3/2014,2013-12-06,12/23/2013 03:00,55,72,,7
CDISCPILOT01,AE,01-704-1266,6,E15,HYPERHIDROSIS,PERSPIRATION EXCESSIVE,,HYPERHIDROSIS,,HLT_0587,,HLGT_0005,,SKIN AND SUBCUTANEOUS TISSUE DISORDERS,,SKIN AND SUBCUTANEOUS TISSUE DISORDERS,,MILD,false,,POSSIBLE,NOT RECOVERED/NOT RESOLVED,false,false,false,false,false,false,false,11/10/2013,2013-11-09,12/4/2013 03:00,28,53,,4
CDISCPILOT01,AE,01-704-1266,10,E15,HYPERHIDROSIS,PERSPIRATION EXCESSIVE,,HYPERHIDROSIS,,HLT_0587,,HLGT_0005,,SKIN AND SUBCUTANEOUS TISSUE DISORDERS,,SKIN AND SUBCUTANEOUS TISSUE DISORDERS,,MILD,false,,POSSIBLE,RECOVERED/RESOLVED,false,false,false,false,false,false,false,12/6/2013,2013-11-09,12/4/2013 03:00,28,53,,4
CDISCPILOT01,AE,01-704-1266,8,E17,PRURITUS,ITCHING,,PRURITUS,,HLT_0778,,HLGT_0695,,SKIN AND SUBCUTANEOUS TISSUE DISORDERS,,SKIN AND SUBCUTANEOUS TISSUE DISORDERS,,MILD,false,,PROBABLE,NOT RECOVERED/NOT RESOLVED,false,false,false,false,false,false,false,11/22/2013,2013-11-15,12/23/2013 03:00,34,72,,4
CDISCPILOT01,AE,01-704-1266,15,E17,PRURITUS,ITCHING,,PRURITUS,,HLT_0778,,HLGT_0695,,SKIN AND SUBCUTANEOUS TISSUE DISORDERS,,SKIN AND SUBCUTANEOUS TISSUE DISORDERS,,MILD,false,,PROBABLE,RECOVERED/RESOLVED,false,false,false,false,false,false,false,1/3/2014,2013-11-15,12/23/2013 03:00,34,72,,4
CDISCPILOT01,AE,01-704-1266,1,E11,SEASONAL ALLERGY,HAY FEVER,,SEASONAL ALLERGY,,HLT_0714,,HLGT_0782,,IMMUNE SYSTEM DISORDERS,,IMMUNE SYSTEM DISORDERS,,MILD,false,,NONE,NOT RECOVERED/NOT RESOLVED,false,false,false,false,false,false,false,10/11/2013,2013-10-06,,-7,,,-1
CDISCPILOT01,AE,01-704-1323,4,E10,OEDEMA,EDEMA,,OEDEMA,,HLT_0656,,HLGT_0036,,GENERAL DISORDERS AND ADMINISTRATION SITE CONDITIONS,,GENERAL DISORDERS AND ADMINISTRATION SITE CONDITIONS,,MILD,false,,PROBABLE,NOT RECOVERED/NOT RESOLVED,false,false,false,false,false,false,false,8/4/2013,2013-08-04,,28,,,4
CDISCPILOT01,AE,01-704-1323,3,E09,PRURITUS,ITCHING,,PRURITUS,,HLT_0778,,HLGT_0695,,SKIN AND SUBCUTANEOUS TISSUE DISORDERS,,SKIN AND SUBCUTANEOUS TISSUE DISORDERS,,MILD,false,,PROBABLE,NOT RECOVERED/NOT RESOLVED,false,false,false,false,false,false,false,8/4/2013,2013-08-04,,28,,,4
CDISCPILOT01,AE,01-704-1323,2,E08,RASH,RASH,,RASH,,HLT_0762,,HLGT_0198,,SKIN AND SUBCUTANEOUS TISSUE DISORDERS,,SKIN AND SUBCUTANEOUS TISSUE DISORDERS,,MILD,false,,PROBABLE,NOT RECOVERED/NOT RESOLVED,false,false,false,false,false,false,false,8/4/2013,2013-08-04,,28,,,4
CDISCPILOT01,AE,01-704-1323,1,E07,VIRAL INFECTION,VIRAL INFECTION,,VIRAL INFECTION,,HLT_0733,,HLGT_0408,,INFECTIONS AND INFESTATIONS,,INFECTIONS AND INFESTATIONS,,MILD,false,,NONE,RECOVERED/RESOLVED,false,false,false,false,false,false,false,8/4/2013,2013-07-30,8/3/2013 00:00,23,27,,3
CDISCPILOT01,AE,01-704-1325,2,E05,PRURITUS,ITCHING,,PRURITUS,,HLT_0778,,HLGT_0695,,SKIN AND SUBCUTANEOUS TISSUE DISORDERS,,SKIN AND SUBCUTANEOUS TISSUE DISORDERS,,MILD,false,,PROBABLE,NOT RECOVERED/NOT RESOLVED,false,false,false,false,false,false,false,7/16/2014,2014-07-04,,73,,,10
CDISCPILOT01,AE,01-704-1325,1,E04,RASH,RASH,,RASH,,HLT_0762,,HLGT_0198,,SKIN AND SUBCUTANEOUS TISSUE DISORDERS,,SKIN AND SUBCUTANEOUS TISSUE DISORDERS,,MILD,false,,PROBABLE,NOT RECOVERED/NOT RESOLVED,false,false,false,false,false,false,false,6/4/2014,2014-05-23,,31,,,4
CDISCPILOT01,AE,01-704-1332,4,E05,BURNING SENSATION,BURNING SENSATION,,BURNING SENSATION,,HLT_0775,,HLGT_0456,,NERVOUS SYSTEM DISORDERS,,NERVOUS SYSTEM DISORDERS,,MILD,false,,PROBABLE,NOT RECOVERED/NOT RESOLVED,false,false,false,false,false,false,false,2/3/2014,2014-02-03,,57,,,8
CDISCPILOT01,AE,01-704-1332,2,E02,PRURITUS,ITCHING,,PRURITUS,,HLT_0778,,HLGT_0695,,SKIN AND SUBCUTANEOUS TISSUE DISORDERS,,SKIN AND SUBCUTANEOUS TISSUE DISORDERS,,MILD,false,,PROBABLE,NOT RECOVERED/NOT RESOLVED,false,false,false,false,false,false,false,1/20/2014,2014-01-18,2/24/2014 03:00,41,78,,5
CDISCPILOT01,AE,01-704-1332,6,E02,PRURITUS,ITCHING,,PRURITUS,,HLT_0778,,HLGT_0695,,SKIN AND SUBCUTANEOUS TISSUE DISORDERS,,SKIN AND SUBCUTANEOUS TISSUE DISORDERS,,MILD,false,,PROBABLE,RECOVERED/RESOLVED,false,false,false,false,false,false,false,2/24/2014,2014-01-18,2/24/2014 03:00,41,78,,5
CDISCPILOT01,AE,01-704-1332,1,E01,RASH,RASH,,RASH,,HLT_0762,,HLGT_0198,,SKIN AND SUBCUTANEOUS TISSUE DISORDERS,,SKIN AND SUBCUTANEOUS TISSUE DISORDERS,,MILD,false,,NONE,NOT RECOVERED/NOT RESOLVED,false,false,false,false,false,false,false,12/23/2013,2013-12-10,2/24/2014 03:00,2,78,,0
CDISCPILOT01,AE,01-704-1332,3,E01,RASH,RASH,,RASH,,HLT_0762,,HLGT_0198,,SKIN AND SUBCUTANEOUS TISSUE DISORDERS,,SKIN AND SUBCUTANEOUS TISSUE DISORDERS,,MODERATE,false,,NONE,NOT RECOVERED/NOT RESOLVED,false,false,false,false,false,false,false,2/3/2014,2013-12-10,2/24/2014 03:00,2,78,,0
CDISCPILOT01,AE,01-704-1332,5,E01,RASH,RASH,,RASH,,HLT_0762,,HLGT_0198,,SKIN AND SUBCUTANEOUS TISSUE DISORDERS,,SKIN AND SUBCUTANEOUS TISSUE DISORDERS,,MODERATE,false,,NONE,RECOVERED/RESOLVED,false,false,false,false,false,false,false,2/24/2014,2013-12-10,2/24/2014 03:00,2,78,,0
CDISCPILOT01,AE,01-704-1351,2,E03,FLATULENCE,GAS,,FLATULENCE,,HLT_0356,,HLGT_0504,,GASTROINTESTINAL DISORDERS,,GASTROINTESTINAL DISORDERS,,MILD,false,,NONE,NOT RECOVERED/NOT RESOLVED,false,false,false,false,false,false,false,11/7/2013,2013-10-27,4/4/2014 00:00,16,175,,2
CDISCPILOT01,AE,01-704-1351,4,E03,FLATULENCE,GAS,,FLATULENCE,,HLT_0356,,HLGT_0504,,GASTROINTESTINAL DISORDERS,,GASTROINTESTINAL DISORDERS,,MILD,false,,NONE,RECOVERED/RESOLVED,false,false,false,false,false,false,false,4/18/2014,2013-10-27,4/4/2014 00:00,16,175,,2
CDISCPILOT01,AE,01-704-1351,1,E02,POLLAKIURIA,URINARY FREQUENCY,,POLLAKIURIA,,HLT_0393,,HLGT_0560,,RENAL AND URINARY DISORDERS,,RENAL AND URINARY DISORDERS,,MILD,false,,NONE,NOT RECOVERED/NOT RESOLVED,false,false,false,false,false,false,false,11/7/2013,2013-10-27,4/4/2014 00:00,16,175,,2
CDISCPILOT01,AE,01-704-1351,3,E02,POLLAKIURIA,URINARY FREQUENCY,,POLLAKIURIA,,HLT_0393,,HLGT_0560,,RENAL AND URINARY DISORDERS,,RENAL AND URINARY DISORDERS,,MILD,false,,NONE,RECOVERED/RESOLVED,false,false,false,false,false,false,false,4/18/2014,2013-10-27,4/4/2014 00:00,16,175,,2
CDISCPILOT01,AE,01-704-1388,1,E01,HEADACHE,HEADACHE,,HEADACHE,,HLT_0064,,HLGT_0344,,NERVOUS SYSTEM DISORDERS,,NERVOUS SYSTEM DISORDERS,,MODERATE,false,,NONE,NOT RECOVERED/NOT RESOLVED,false,false,false,false,false,false,false,3/27/2013,2012-08-23,,71,73,,10
CDISCPILOT01,AE,01-704-1435,1,E08,PARKINSON'S DISEASE,DISEASE PARKINSON'S,,PARKINSON'S DISEASE,,HLT_0279,,HLGT_0313,,NERVOUS SYSTEM DISORDERS,,NERVOUS SYSTEM DISORDERS,,MILD,false,,NONE,NOT RECOVERED/NOT RESOLVED,false,false,false,false,false,false,false,1/12/2013,2013-01-06,,51,,,7
CDISCPILOT01,AE,01-704-1445,1,E06,COMPLETED SUICIDE,SUICIDE,,COMPLETED SUICIDE,,HLT_0625,,HLGT_0013,,PSYCHIATRIC DISORDERS,,PSYCHIATRIC DISORDERS,,SEVERE,false,,NONE,FATAL,false,false,false,true,false,false,false,11/1/2014,2014-10-31,10/31/2014 00:00,174,174,,24
CDISCPILOT01,AE,01-705-1031,1,E02,RASH,RASH,,RASH,,HLT_0762,,HLGT_0198,,SKIN AND SUBCUTANEOUS TISSUE DISORDERS,,SKIN AND SUBCUTANEOUS TISSUE DISORDERS,,MILD,false,,POSSIBLE,NOT RECOVERED/NOT RESOLVED,false,false,false,false,false,false,false,12/25/2013,2013-12-25,,29,,,4
CDISCPILOT01,AE,01-705-1059,1,E02,ERYTHEMA,ERYTHEMA,,ERYTHEMA,,HLT_0284,,HLGT_0192,,SKIN AND SUBCUTANEOUS TISSUE DISORDERS,,SKIN AND SUBCUTANEOUS TISSUE DISORDERS,,MODERATE,false,,PROBABLE,NOT RECOVERED/NOT RESOLVED,false,false,false,false,false,false,false,11/7/2013,2013-11-02,,90,,,12
CDISCPILOT01,AE,01-705-1186,1,E02,HYPERBILIRUBINAEMIA,HYPERBILIRUBINEMIA,,HYPERBILIRUBINAEMIA,,HLT_0478,,HLGT_0087,,HEPATOBILIARY DISORDERS,,HEPATOBILIARY DISORDERS,,MODERATE,false,,REMOTE,NOT RECOVERED/NOT RESOLVED,false,false,false,false,false,false,false,2/7/2014,2014-01-26,,19,,,2
CDISCPILOT01,AE,01-705-1199,1,E06,DYSPEPSIA,PYROSIS,,DYSPEPSIA,,HLT_0244,,HLGT_0716,,GASTROINTESTINAL DISORDERS,,GASTROINTESTINAL DISORDERS,,MODERATE,false,,POSSIBLE,NOT RECOVERED/NOT RESOLVED,false,false,false,false,false,false,false,9/29/2013,2013-09-17,9/29/2013 00:00,2,14,,0
CDISCPILOT01,AE,01-705-1199,2,E06,DYSPEPSIA,PYROSIS,,DYSPEPSIA,,HLT_0244,,HLGT_0716,,GASTROINTESTINAL DISORDERS,,GASTROINTESTINAL DISORDERS,,MODERATE,false,,POSSIBLE,RECOVERED/RESOLVED,false,false,false,false,false,false,false,9/29/2013,2013-09-17,9/29/2013 00:00,2,14,,0
CDISCPILOT01,AE,01-705-1280,1,E01,PRURITUS,PRURITUS,,PRURITUS,,HLT_0778,,HLGT_0695,,SKIN AND SUBCUTANEOUS TISSUE DISORDERS,,SKIN AND SUBCUTANEOUS TISSUE DISORDERS,,MILD,false,,POSSIBLE,NOT RECOVERED/NOT RESOLVED,false,false,false,false,false,false,false,5/16/2014,2014-04-20,,94,,,13
CDISCPILOT01,AE,01-705-1281,2,E05,EXCORIATION,ABRASIONS,,EXCORIATION,,HLT_0738,,HLGT_0511,,"INJURY, POISONING AND PROCEDURAL COMPLICATIONS",,"INJURY, POISONING AND PROCEDURAL COMPLICATIONS",,MODERATE,false,,PROBABLE,NOT RECOVERED/NOT RESOLVED,false,false,false,false,false,false,false,2/18/2014,2014-01-30,,64,,,9
CDISCPILOT01,AE,01-705-1281,1,E04,PRURITUS,PRURITUS,,PRURITUS,,HLT_0778,,HLGT_0695,,SKIN AND SUBCUTANEOUS TISSUE DISORDERS,,SKIN AND SUBCUTANEOUS TISSUE DISORDERS,,MILD,false,,POSSIBLE,NOT RECOVERED/NOT RESOLVED,false,false,false,false,false,false,false,2/18/2014,2014-01-30,,64,,,9
CDISCPILOT01,AE,01-705-1281,3,E04,PRURITUS,PRURITUS,,PRURITUS,,HLT_0778,,HLGT_0695,,SKIN AND SUBCUTANEOUS TISSUE DISORDERS,,SKIN AND SUBCUTANEOUS TISSUE DISORDERS,,MODERATE,false,,POSSIBLE,NOT RECOVERED/NOT RESOLVED,false,false,false,false,false,false,false,3/17/2014,2014-01-30,,64,,,9
CDISCPILOT01,AE,01-705-1292,2,E02,ERYTHEMA,ERYTHEMA,,ERYTHEMA,,HLT_0284,,HLGT_0192,,SKIN AND SUBCUTANEOUS TISSUE DISORDERS,,SKIN AND SUBCUTANEOUS TISSUE DISORDERS,,MODERATE,false,,PROBABLE,NOT RECOVERED/NOT RESOLVED,false,false,false,false,false,false,false,3/3/2014,2014-02-13,,123,,,17
CDISCPILOT01,AE,01-705-1292,1,E01,PRURITUS,ITCHY,,PRURITUS,,HLT_0778,,HLGT_0695,,SKIN AND SUBCUTANEOUS TISSUE DISORDERS,,SKIN AND SUBCUTANEOUS TISSUE DISORDERS,,MILD,false,,PROBABLE,NOT RECOVERED/NOT RESOLVED,false,false,false,false,false,false,false,10/29/2013,2013-10-28,,15,,,2
CDISCPILOT01,AE,01-705-1303,1,E02,PRURITUS,PRURITUS,,PRURITUS,,HLT_0778,,HLGT_0695,,SKIN AND SUBCUTANEOUS TISSUE DISORDERS,,SKIN AND SUBCUTANEOUS TISSUE DISORDERS,,MILD,false,,POSSIBLE,NOT RECOVERED/NOT RESOLVED,false,false,false,false,false,false,false,2/10/2014,2014-02-05,3/3/2014 03:00,52,78,,7
CDISCPILOT01,AE,01-705-1303,3,E02,PRURITUS,PRURITUS,,PRURITUS,,HLT_0778,,HLGT_0695,,SKIN AND SUBCUTANEOUS TISSUE DISORDERS,,SKIN AND SUBCUTANEOUS TISSUE DISORDERS,,MILD,false,,POSSIBLE,RECOVERED/RESOLVED,false,false,false,false,false,false,false,4/7/2014,2014-02-05,3/3/2014 03:00,52,78,,7
CDISCPILOT01,AE,01-705-1303,2,E03,RASH,RASH,,RASH,,HLT_0762,,HLGT_0198,,SKIN AND SUBCUTANEOUS TISSUE DISORDERS,,SKIN AND SUBCUTANEOUS TISSUE DISORDERS,,MILD,false,,POSSIBLE,NOT RECOVERED/NOT RESOLVED,false,false,false,false,false,false,false,2/10/2014,2014-02-05,3/3/2014 03:00,52,78,,7
CDISCPILOT01,AE,01-705-1303,4,E03,RASH,RASH,,RASH,,HLT_0762,,HLGT_0198,,SKIN AND SUBCUTANEOUS TISSUE DISORDERS,,SKIN AND SUBCUTANEOUS TISSUE DISORDERS,,MODERATE,false,,POSSIBLE,RECOVERED/RESOLVED,false,false,false,false,false,false,false,4/7/2014,2014-02-05,3/3/2014 03:00,52,78,,7
CDISCPILOT01,AE,01-705-1310,1,E02,RASH PRURITIC,PRURITIC RASH,,RASH PRURITIC,,HLT_0127,,HLGT_0753,,SKIN AND SUBCUTANEOUS TISSUE DISORDERS,,SKIN AND SUBCUTANEOUS TISSUE DISORDERS,,MODERATE,false,,POSSIBLE,NOT RECOVERED/NOT RESOLVED,false,false,false,false,false,false,false,11/22/2013,2013-11-14,,13,,,1
CDISCPILOT01,AE,01-705-1310,2,E03,WOUND HAEMORRHAGE,WOUND BLEEDING,,WOUND HAEMORRHAGE,,HLT_0154,,HLGT_0162,,VASCULAR DISORDERS,,VASCULAR DISORDERS,,MODERATE,false,,POSSIBLE,NOT RECOVERED/NOT RESOLVED,false,false,false,false,false,false,false,1/23/2014,2014-01-09,,69,,,9
CDISCPILOT01,AE,01-705-1349,4,E06,ELECTROCARDIOGRAM ST SEGMENT DEPRESSION,ST SEGMENT DEPRESSED,,ELECTROCARDIOGRAM ST SEGMENT DEPRESSION,,HLT_0610,,HLGT_0220,,INVESTIGATIONS,,INVESTIGATIONS,,MILD,false,,REMOTE,NOT RECOVERED/NOT RESOLVED,false,false,false,false,false,false,false,8/25/2013,2013-08-25,,169,,,24
CDISCPILOT01,AE,01-705-1349,1,E03,NAUSEA,NAUSEA,,NAUSEA,,HLT_0742,,HLGT_0326,,GASTROINTESTINAL DISORDERS,,GASTROINTESTINAL DISORDERS,,MILD,false,,REMOTE,RECOVERED/RESOLVED,false,false,false,false,false,false,false,4/17/2013,2013-04-08,4/8/2013 00:00,30,30,,4
CDISCPILOT01,AE,01-705-1349,3,E05,VENTRICULAR HYPERTROPHY,LEFT VENTRICULAR HYPERTROPHY,,VENTRICULAR HYPERTROPHY,,HLT_0104,,HLGT_0259,,CARDIAC DISORDERS,,CARDIAC DISORDERS,,MILD,false,,REMOTE,NOT RECOVERED/NOT RESOLVED,false,false,false,false,false,false,false,8/25/2013,2013-08-25,,169,,,24
CDISCPILOT01,AE,01-705-1349,2,E04,VOMITING,VOMITING,,VOMITING,,HLT_0016,,HLGT_0350,,GASTROINTESTINAL DISORDERS,,GASTROINTESTINAL DISORDERS,,MILD,false,,REMOTE,RECOVERED/RESOLVED,false,false,false,false,false,false,false,4/17/2013,2013-04-11,4/11/2013 00:00,33,33,,4
CDISCPILOT01,AE,01-705-1393,1,E01,ABDOMINAL PAIN,ABDOMINAL CRAMPS,,ABDOMINAL PAIN,,HLT_0217,,HLGT_0419,,GASTROINTESTINAL DISORDERS,,GASTROINTESTINAL DISORDERS,,MILD,false,,REMOTE,RECOVERED/RESOLVED,false,false,false,false,false,false,false,9/27/2012,2012-09-19,9/24/2012 00:00,13,18,,1
CDISCPILOT01,AE,01-705-1393,3,E05,COLON CANCER,COLON CANCER,,COLON CANCER,,HLT_0597,,HLGT_0339,,"NEOPLASMS BENIGN, MALIGNANT AND UNSPECIFIED (INCL CYSTS AND POLYPS)",,"NEOPLASMS BENIGN, MALIGNANT AND UNSPECIFIED (INCL CYSTS AND POLYPS)",,SEVERE,false,,NONE,RECOVERED/RESOLVED,true,false,false,false,true,false,false,2/20/2013,2013-01-21,1/24/2013 03:00,137,140,,19
CDISCPILOT01,AE,01-705-1393,2,E04,PRURITUS,PRURITUS,,PRURITUS,,HLT_0778,,HLGT_0695,,SKIN AND SUBCUTANEOUS TISSUE DISORDERS,,SKIN AND SUBCUTANEOUS TISSUE DISORDERS,,MILD,false,,PROBABLE,NOT RECOVERED/NOT RESOLVED,false,false,false,false,false,false,false,12/5/2012,2011-12-05,2/20/2013 03:00,0,16,,0
CDISCPILOT01,AE,01-705-1393,4,E04,PRURITUS,PRURITUS,,PRURITUS,,HLT_0778,,HLGT_0695,,SKIN AND SUBCUTANEOUS TISSUE DISORDERS,,SKIN AND SUBCUTANEOUS TISSUE DISORDERS,,MILD,false,,PROBABLE,RECOVERED/RESOLVED,false,false,false,false,false,false,false,4/25/2013,2011-12-05,2/20/2013 03:00,1,15,,0
CDISCPILOT01,AE,01-705-1431,2,E04,ANXIETY,FEELING ANXIOUS,,ANXIETY,,HLT_0559,,HLGT_0570,,PSYCHIATRIC DISORDERS,,PSYCHIATRIC DISORDERS,,MILD,false,,POSSIBLE,RECOVERED/RESOLVED,false,false,false,false,false,false,false,7/7/2013,2013-07-04,7/6/2013 00:00,12,14,,1
CDISCPILOT01,AE,01-705-1431,1,E05,RASH ERYTHEMATOUS,ERYTHEMATOUS RASH,,RASH ERYTHEMATOUS,,HLT_0336,,HLGT_0701,,SKIN AND SUBCUTANEOUS TISSUE DISORDERS,,SKIN AND SUBCUTANEOUS TISSUE DISORDERS,,MILD,false,,PROBABLE,NOT RECOVERED/NOT RESOLVED,false,false,false,false,false,false,false,6/23/2013,2013-06-22,,-1,,,-1
CDISCPILOT01,AE,01-706-1041,1,E02,ANXIETY,ANXIETY ATTACK,,ANXIETY,,HLT_0559,,HLGT_0570,,PSYCHIATRIC DISORDERS,,PSYCHIATRIC DISORDERS,,MODERATE,false,,REMOTE,NOT RECOVERED/NOT RESOLVED,false,false,false,false,false,false,false,1/14/2014,12-May,,,,,
CDISCPILOT01,AE,01-706-1041,7,E02,ANXIETY,ANXIETY ATTACK,,ANXIETY,,HLT_0559,,HLGT_0570,,PSYCHIATRIC DISORDERS,,PSYCHIATRIC DISORDERS,,MILD,false,,REMOTE,NOT RECOVERED/NOT RESOLVED,false,false,false,false,false,false,false,5/6/2014,12-May,,,,,
CDISCPILOT01,AE,01-706-1041,2,E01,DIARRHOEA,DIARRHEA,,DIARRHOEA,,HLT_0148,,HLGT_0588,,GASTROINTESTINAL DISORDERS,,GASTROINTESTINAL DISORDERS,,MILD,false,,REMOTE,RECOVERED/RESOLVED,false,false,false,false,false,false,false,1/14/2014,2014-01-07,1/8/2014 03:00,8,9,,1
CDISCPILOT01,AE,01-706-1041,3,E07,EXCORIATION,ABRASIONS,,EXCORIATION,,HLT_0738,,HLGT_0511,,"INJURY, POISONING AND PROCEDURAL COMPLICATIONS",,"INJURY, POISONING AND PROCEDURAL COMPLICATIONS",,MILD,false,,NONE,NOT RECOVERED/NOT RESOLVED,false,false,false,false,false,false,false,1/14/2014,2014-01-14,1/28/2014 03:00,15,29,,2
CDISCPILOT01,AE,01-706-1041,5,E07,EXCORIATION,ABRASIONS,,EXCORIATION,,HLT_0738,,HLGT_0511,,"INJURY, POISONING AND PROCEDURAL COMPLICATIONS",,"INJURY, POISONING AND PROCEDURAL COMPLICATIONS",,MILD,false,,NONE,RECOVERED/RESOLVED,false,false,false,false,false,false,false,1/30/2014,2014-01-14,1/28/2014 03:00,15,29,,2
CDISCPILOT01,AE,01-706-1041,4,E03,IRRITABILITY,IRRITABILITY,,IRRITABILITY,,HLT_0627,,HLGT_0461,,PSYCHIATRIC DISORDERS,,PSYCHIATRIC DISORDERS,,MODERATE,false,,POSSIBLE,NOT RECOVERED/NOT RESOLVED,false,false,false,false,false,false,false,1/28/2014,2014-01-15,7/29/2014 00:00,16,211,,2
CDISCPILOT01,AE,01-706-1041,8,E03,IRRITABILITY,IRRITABILITY,,IRRITABILITY,,HLT_0627,,HLGT_0461,,PSYCHIATRIC DISORDERS,,PSYCHIATRIC DISORDERS,,MODERATE,false,,POSSIBLE,RECOVERED/RESOLVED,false,false,false,false,false,false,false,7/29/2014,2014-01-15,7/29/2014 00:00,16,211,,2
CDISCPILOT01,AE,01-706-1041,6,E08,PRURITUS,ITCHING,,PRURITUS,,HLT_0778,,HLGT_0695,,SKIN AND SUBCUTANEOUS TISSUE DISORDERS,,SKIN AND SUBCUTANEOUS TISSUE DISORDERS,,MILD,false,,POSSIBLE,NOT RECOVERED/NOT RESOLVED,false,false,false,false,false,false,false,3/4/2014,2014-03-04,7/29/2014 00:00,64,211,,9
CDISCPILOT01,AE,01-706-1041,9,E08,PRURITUS,ITCHING,,PRURITUS,,HLT_0778,,HLGT_0695,,SKIN AND SUBCUTANEOUS TISSUE DISORDERS,,SKIN AND SUBCUTANEOUS TISSUE DISORDERS,,MILD,false,,POSSIBLE,RECOVERED/RESOLVED,false,false,false,false,false,false,false,7/29/2014,2014-03-04,7/29/2014 00:00,64,211,,9
CDISCPILOT01,AE,01-706-1049,1,E01,SYNCOPE,FAINTING,,SYNCOPE,,HLT_0440,,HLGT_0310,,NERVOUS SYSTEM DISORDERS,,NERVOUS SYSTEM DISORDERS,,MODERATE,false,,POSSIBLE,RECOVERED/RESOLVED,false,false,false,false,false,false,false,6/11/2013,2013-06-03,6/3/2013 00:00,21,21,,3
CDISCPILOT01,AE,01-706-1049,2,E02,SYNCOPE,SYNCOPAL ATTACK,,SYNCOPE,,HLT_0440,,HLGT_0310,,NERVOUS SYSTEM DISORDERS,,NERVOUS SYSTEM DISORDERS,,SEVERE,false,,PROBABLE,RECOVERED/RESOLVED,false,false,false,false,true,false,false,6/25/2013,2013-06-18,6/18/2013 00:00,36,36,,5
CDISCPILOT01,AE,01-706-1384,1,E03,ERYTHEMA,ERYTHEMA,,ERYTHEMA,,HLT_0284,,HLGT_0192,,SKIN AND SUBCUTANEOUS TISSUE DISORDERS,,SKIN AND SUBCUTANEOUS TISSUE DISORDERS,,MODERATE,false,,NONE,NOT RECOVERED/NOT RESOLVED,false,false,false,false,false,false,false,9/15/2012,2012-09-15,9/29/2012 00:00,1,15,,0
CDISCPILOT01,AE,01-706-1384,6,E03,ERYTHEMA,ERYTHEMA,,ERYTHEMA,,HLT_0284,,HLGT_0192,,SKIN AND SUBCUTANEOUS TISSUE DISORDERS,,SKIN AND SUBCUTANEOUS TISSUE DISORDERS,,MODERATE,false,,NONE,RECOVERED/RESOLVED,false,false,false,false,false,false,false,6/22/2013,2012-09-15,9/29/2012 00:00,1,15,,0
CDISCPILOT01,AE,01-706-1384,4,E01,ERYTHEMA,ERYTHEMA,,ERYTHEMA,,HLT_0284,,HLGT_0192,,SKIN AND SUBCUTANEOUS TISSUE DISORDERS,,SKIN AND SUBCUTANEOUS TISSUE DISORDERS,,MODERATE,false,,PROBABLE,NOT RECOVERED/NOT RESOLVED,false,false,false,false,false,false,false,9/29/2012,2012-09-23,9/29/2012 00:00,9,15,,1
CDISCPILOT01,AE,01-706-1384,9,E01,ERYTHEMA,ERYTHEMA,,ERYTHEMA,,HLT_0284,,HLGT_0192,,SKIN AND SUBCUTANEOUS TISSUE DISORDERS,,SKIN AND SUBCUTANEOUS TISSUE DISORDERS,,MODERATE,false,,PROBABLE,RECOVERED/RESOLVED,false,false,false,false,false,false,false,6/22/2013,2012-09-23,9/29/2012 00:00,9,15,,1
CDISCPILOT01,AE,01-706-1384,3,E05,EXCORIATION,ABRASIONS,,EXCORIATION,,HLT_0738,,HLGT_0511,,"INJURY, POISONING AND PROCEDURAL COMPLICATIONS",,"INJURY, POISONING AND PROCEDURAL COMPLICATIONS",,MODERATE,false,,NONE,NOT RECOVERED/NOT RESOLVED,false,false,false,false,false,false,false,9/15/2012,2012-09-15,9/29/2012 00:00,1,15,,0
CDISCPILOT01,AE,01-706-1384,8,E05,EXCORIATION,ABRASIONS,,EXCORIATION,,HLT_0738,,HLGT_0511,,"INJURY, POISONING AND PROCEDURAL COMPLICATIONS",,"INJURY, POISONING AND PROCEDURAL COMPLICATIONS",,MODERATE,false,,NONE,RECOVERED/RESOLVED,false,false,false,false,false,false,false,6/22/2013,2012-09-15,9/29/2012 00:00,1,15,,0
CDISCPILOT01,AE,01-706-1384,2,E04,PRURITUS,PRURITIS,,PRURITUS,,HLT_0778,,HLGT_0695,,SKIN AND SUBCUTANEOUS TISSUE DISORDERS,,SKIN AND SUBCUTANEOUS TISSUE DISORDERS,,MODERATE,false,,NONE,NOT RECOVERED/NOT RESOLVED,false,false,false,false,false,false,false,9/15/2012,2012-09-15,9/29/2012 00:00,1,15,,0
CDISCPILOT01,AE,01-706-1384,7,E04,PRURITUS,PRURITIS,,PRURITUS,,HLT_0778,,HLGT_0695,,SKIN AND SUBCUTANEOUS TISSUE DISORDERS,,SKIN AND SUBCUTANEOUS TISSUE DISORDERS,,MODERATE,false,,NONE,RECOVERED/RESOLVED,false,false,false,false,false,false,false,6/22/2013,2012-09-15,9/29/2012 00:00,1,15,,0
CDISCPILOT01,AE,01-706-1384,5,E06,PRURITUS,PRURITIS,,PRURITUS,,HLT_0778,,HLGT_0695,,SKIN AND SUBCUTANEOUS TISSUE DISORDERS,,SKIN AND SUBCUTANEOUS TISSUE DISORDERS,,MODERATE,false,,PROBABLE,NOT RECOVERED/NOT RESOLVED,false,false,false,false,false,false,false,9/29/2012,2012-09-23,9/29/2012 00:00,9,15,,1
CDISCPILOT01,AE,01-706-1384,10,E06,PRURITUS,PRURITIS,,PRURITUS,,HLT_0778,,HLGT_0695,,SKIN AND SUBCUTANEOUS TISSUE DISORDERS,,SKIN AND SUBCUTANEOUS TISSUE DISORDERS,,MODERATE,false,,PROBABLE,RECOVERED/RESOLVED,false,false,false,false,false,false,false,6/22/2013,2012-09-23,9/29/2012 00:00,9,15,,1
CDISCPILOT01,AE,01-707-1206,2,E03,BLOOD CREATINE PHOSPHOKINASE INCREASED,CPK INCREASE,,BLOOD CREATINE PHOSPHOKINASE INCREASED,,HLT_0404,,HLGT_0008,,INVESTIGATIONS,,INVESTIGATIONS,,MODERATE,false,,POSSIBLE,NOT RECOVERED/NOT RESOLVED,false,false,false,false,false,false,false,11/27/2013,2013-11-26,12/9/2013 03:00,30,43,,4
CDISCPILOT01,AE,01-707-1206,4,E03,BLOOD CREATINE PHOSPHOKINASE INCREASED,CPK INCREASE,,BLOOD CREATINE PHOSPHOKINASE INCREASED,,HLT_0404,,HLGT_0008,,INVESTIGATIONS,,INVESTIGATIONS,,MODERATE,false,,POSSIBLE,RECOVERED/RESOLVED,false,false,false,false,false,false,false,12/23/2013,2013-11-26,12/9/2013 03:00,30,43,,4
CDISCPILOT01,AE,01-707-1206,7,E06,CONJUNCTIVITIS,CONJUNCTIVITIS,,CONJUNCTIVITIS,,HLT_0584,,HLGT_0335,,EYE DISORDERS,,EYE DISORDERS,,MODERATE,false,,REMOTE,NOT RECOVERED/NOT RESOLVED,false,false,false,false,false,false,false,2/16/2014,2014-02-08,2/22/2014 03:00,104,118,,14
CDISCPILOT01,AE,01-707-1206,8,E06,CONJUNCTIVITIS,CONJUNCTIVITIS,,CONJUNCTIVITIS,,HLT_0584,,HLGT_0335,,EYE DISORDERS,,EYE DISORDERS,,MODERATE,false,,REMOTE,RECOVERED/RESOLVED,false,false,false,false,false,false,false,3/16/2014,2014-02-08,2/22/2014 03:00,104,118,,14
CDISCPILOT01,AE,01-707-1206,3,E05,POSTNASAL DRIP,POSTNASAL DRIP,,POSTNASAL DRIP,,HLT_0172,,HLGT_0032,,"RESPIRATORY, THORACIC AND MEDIASTINAL DISORDERS",,"RESPIRATORY, THORACIC AND MEDIASTINAL DISORDERS",,MILD,false,,NONE,NOT RECOVERED/NOT RESOLVED,false,false,false,false,false,false,false,12/9/2013,2013-12-03,12/10/2013 03:00,37,44,,5
CDISCPILOT01,AE,01-707-1206,5,E05,POSTNASAL DRIP,POSTNASAL DRIP,,POSTNASAL DRIP,,HLT_0172,,HLGT_0032,,"RESPIRATORY, THORACIC AND MEDIASTINAL DISORDERS",,"RESPIRATORY, THORACIC AND MEDIASTINAL DISORDERS",,MILD,false,,NONE,RECOVERED/RESOLVED,false,false,false,false,false,false,false,12/23/2013,2013-12-03,12/10/2013 03:00,37,44,,5
CDISCPILOT01,AE,01-707-1206,1,E04,SINUS ARRHYTHMIA,SINUS ARRHYTHMIA,,SINUS ARRHYTHMIA,,HLT_0094,,HLGT_0630,,CARDIAC DISORDERS,,CARDIAC DISORDERS,,MILD,false,,POSSIBLE,NOT RECOVERED/NOT RESOLVED,false,false,false,false,false,false,false,11/25/2013,2013-11-25,12/23/2013 03:00,29,57,,4
CDISCPILOT01,AE,01-707-1206,6,E04,SINUS ARRHYTHMIA,SINUS ARRHYTHMIA,,SINUS ARRHYTHMIA,,HLT_0094,,HLGT_0630,,CARDIAC DISORDERS,,CARDIAC DISORDERS,,MILD,false,,POSSIBLE,RECOVERED/RESOLVED,false,false,false,false,false,false,false,1/19/2014,2013-11-25,12/23/2013 03:00,29,57,,4
CDISCPILOT01,AE,01-708-1019,5,E06,DIZZINESS,DIZZINESS,,DIZZINESS,,HLT_0619,,HLGT_0751,,NERVOUS SYSTEM DISORDERS,,NERVOUS SYSTEM DISORDERS,,MILD,false,,POSSIBLE,RECOVERED/RESOLVED,false,false,false,false,false,false,false,1/23/2014,2014-01-01,1/1/2014 03:00,13,13,,1
CDISCPILOT01,AE,01-708-1019,1,E02,HEADACHE,FRONTAL HEADACHE,,HEADACHE,,HLT_0064,,HLGT_0344,,NERVOUS SYSTEM DISORDERS,,NERVOUS SYSTEM DISORDERS,,SEVERE,false,,POSSIBLE,RECOVERED/RESOLVED,false,false,false,false,false,false,false,1/23/2014,2013-12-31,12/31/2013 03:00,12,12,,1
CDISCPILOT01,AE,01-708-1019,2,E03,STUPOR,STUPOR,,STUPOR,,HLT_0595,,HLGT_0513,,NERVOUS SYSTEM DISORDERS,,NERVOUS SYSTEM DISORDERS,,SEVERE,false,,POSSIBLE,RECOVERED/RESOLVED,false,false,false,false,false,false,false,1/23/2014,2014-01-01,1/1/2014 03:00,13,13,,1
CDISCPILOT01,AE,01-708-1019,3,E04,TRANSIENT ISCHAEMIC ATTACK,TRANSIENT ISCHEMIC ATTACKS,,TRANSIENT ISCHAEMIC ATTACK,,HLT_0041,,HLGT_0433,,NERVOUS SYSTEM DISORDERS,,NERVOUS SYSTEM DISORDERS,,SEVERE,false,,POSSIBLE,RECOVERED/RESOLVED,false,false,false,false,false,false,false,1/23/2014,2014-01-01,1/1/2014 03:00,13,13,,1
CDISCPILOT01,AE,01-708-1019,4,E05,VISION BLURRED,BLURRED VISION,,VISION BLURRED,,HLT_0120,,HLGT_0598,,EYE DISORDERS,,EYE DISORDERS,,MILD,false,,POSSIBLE,RECOVERED/RESOLVED,false,false,false,false,false,false,false,1/23/2014,2014-01-01,1/1/2014 03:00,13,13,,1
CDISCPILOT01,AE,01-708-1032,1,E05,APPLICATION SITE VESICLES,APPLICATION SITE BLISTER,,APPLICATION SITE VESICLES,,HLT_0180,,HLGT_0576,,GENERAL DISORDERS AND ADMINISTRATION SITE CONDITIONS,,GENERAL DISORDERS AND ADMINISTRATION SITE CONDITIONS,,MODERATE,false,,PROBABLE,RECOVERED/RESOLVED,false,false,false,false,false,false,false,3/9/2013,2013-02-26,3/9/2013 03:00,18,29,,2
CDISCPILOT01,AE,01-708-1084,1,E02,DIZZINESS,DIZZINESS,,DIZZINESS,,HLT_0619,,HLGT_0751,,NERVOUS SYSTEM DISORDERS,,NERVOUS SYSTEM DISORDERS,,MILD,false,,POSSIBLE,NOT RECOVERED/NOT RESOLVED,false,false,false,false,false,false,false,5/23/2013,2013-05-23,5/23/2013 00:00,15,15,,2
CDISCPILOT01,AE,01-708-1084,2,E02,DIZZINESS,DIZZINESS,,DIZZINESS,,HLT_0619,,HLGT_0751,,NERVOUS SYSTEM DISORDERS,,NERVOUS SYSTEM DISORDERS,,MILD,false,,POSSIBLE,RECOVERED/RESOLVED,false,false,false,false,false,false,false,6/9/2013,2013-05-23,5/23/2013 00:00,15,15,,2
CDISCPILOT01,AE,01-708-1084,3,E07,MYOCARDIAL INFARCTION,MYOCARDIAL INFARCTION,,MYOCARDIAL INFARCTION,,HLT_0649,,HLGT_0688,,CARDIAC DISORDERS,,CARDIAC DISORDERS,,MILD,false,,REMOTE,NOT RECOVERED/NOT RESOLVED,false,false,false,false,false,false,false,6/9/2013,2013-06-09,6/9/2013 00:00,32,32,,4
CDISCPILOT01,AE,01-708-1084,4,E07,MYOCARDIAL INFARCTION,MYOCARDIAL INFARCTION,,MYOCARDIAL INFARCTION,,HLT_0649,,HLGT_0688,,CARDIAC DISORDERS,,CARDIAC DISORDERS,,MILD,false,,REMOTE,RECOVERED/RESOLVED,false,false,false,false,false,false,false,6/11/2013,2013-06-09,6/9/2013 00:00,32,32,,4
CDISCPILOT01,AE,01-708-1084,5,E06,SINUS BRADYCARDIA,SINUS BRADYCARDIA,,SINUS BRADYCARDIA,,HLT_0644,,HLGT_0500,,CARDIAC DISORDERS,,CARDIAC DISORDERS,,MILD,false,,REMOTE,NOT RECOVERED/NOT RESOLVED,false,false,false,false,false,false,false,6/23/2013,2013-06-23,6/23/2013 00:00,46,46,,6
CDISCPILOT01,AE,01-708-1084,6,E06,SINUS BRADYCARDIA,SINUS BRADYCARDIA,,SINUS BRADYCARDIA,,HLT_0644,,HLGT_0500,,CARDIAC DISORDERS,,CARDIAC DISORDERS,,MILD,false,,REMOTE,RECOVERED/RESOLVED,false,false,false,false,false,false,false,7/7/2013,2013-06-23,6/23/2013 00:00,46,46,,6
CDISCPILOT01,AE,01-708-1087,3,E03,DIZZINESS,DIZZINESS,,DIZZINESS,,HLT_0619,,HLGT_0751,,NERVOUS SYSTEM DISORDERS,,NERVOUS SYSTEM DISORDERS,,MILD,false,,POSSIBLE,RECOVERED/RESOLVED,false,false,false,false,false,false,false,2/16/2013,2013-02-04,2/8/2013 03:00,106,110,,15
CDISCPILOT01,AE,01-708-1087,4,E02,HEADACHE,HEADACHE,,HEADACHE,,HLT_0064,,HLGT_0344,,NERVOUS SYSTEM DISORDERS,,NERVOUS SYSTEM DISORDERS,,MILD,false,,NONE,NOT RECOVERED/NOT RESOLVED,false,false,false,false,false,false,false,2/16/2013,2013-02-16,,118,,,16
CDISCPILOT01,AE,01-708-1087,1,E05,HEART RATE IRREGULAR,HEARTBEATS IRREGULAR,,HEART RATE IRREGULAR,,HLT_0765,,HLGT_0140,,INVESTIGATIONS,,INVESTIGATIONS,,MILD,false,,POSSIBLE,NOT RECOVERED/NOT RESOLVED,false,false,false,false,false,false,false,1/19/2013,2013-01-19,1/19/2013 03:00,90,90,,12
CDISCPILOT01,AE,01-708-1087,2,E05,HEART RATE IRREGULAR,HEARTBEATS IRREGULAR,,HEART RATE IRREGULAR,,HLT_0765,,HLGT_0140,,INVESTIGATIONS,,INVESTIGATIONS,,MILD,false,,POSSIBLE,RECOVERED/RESOLVED,false,false,false,false,false,false,false,2/16/2013,2013-01-19,1/19/2013 03:00,90,90,,12
CDISCPILOT01,AE,01-708-1087,5,E06,HEART RATE IRREGULAR,HEARTBEATS IRREGULAR,,HEART RATE IRREGULAR,,HLT_0765,,HLGT_0140,,INVESTIGATIONS,,INVESTIGATIONS,,MILD,false,,POSSIBLE,NOT RECOVERED/NOT RESOLVED,false,false,false,false,false,false,false,3/16/2013,2013-03-16,3/16/2013 04:00,146,146,,20
CDISCPILOT01,AE,01-708-1087,6,E06,HEART RATE IRREGULAR,HEARTBEATS IRREGULAR,,HEART RATE IRREGULAR,,HLT_0765,,HLGT_0140,,INVESTIGATIONS,,INVESTIGATIONS,,MILD,false,,POSSIBLE,RECOVERED/RESOLVED,false,false,false,false,false,false,false,4/10/2013,2013-03-16,3/16/2013 04:00,146,146,,20
CDISCPILOT01,AE,01-708-1158,1,E05,AGITATION,AGITATION,,AGITATION,,HLT_0140,,HLGT_0170,,PSYCHIATRIC DISORDERS,,PSYCHIATRIC DISORDERS,,MILD,false,,REMOTE,NOT RECOVERED/NOT RESOLVED,false,false,false,false,false,false,false,2/26/2014,2014-02-25,,18,,,2
CDISCPILOT01,AE,01-708-1158,2,E07,ERYTHEMA,ERYTHEMA,,ERYTHEMA,,HLT_0284,,HLGT_0192,,SKIN AND SUBCUTANEOUS TISSUE DISORDERS,,SKIN AND SUBCUTANEOUS TISSUE DISORDERS,,MILD,false,,PROBABLE,RECOVERED/RESOLVED,false,false,false,false,false,false,false,3/22/2014,2014-03-22,3/22/2014 04:00,43,43,,6
CDISCPILOT01,AE,01-708-1178,9,E13,ALCOHOL USE,ALCOHOL USE,,ALCOHOL USE,,HLT_0138,,HLGT_0182,,SOCIAL CIRCUMSTANCES,,SOCIAL CIRCUMSTANCES,,MILD,false,,NONE,RECOVERED/RESOLVED,false,false,false,false,false,false,false,4/6/2014,2014-03-24,3/24/2014 04:00,86,86,,12
CDISCPILOT01,AE,01-708-1178,3,E06,APPLICATION SITE PRURITUS,APPLICATION SITE ITCHING,,APPLICATION SITE PRURITUS,,HLT_0317,,HLGT_0338,,GENERAL DISORDERS AND ADMINISTRATION SITE CONDITIONS,,GENERAL DISORDERS AND ADMINISTRATION SITE CONDITIONS,,MILD,false,,PROBABLE,NOT RECOVERED/NOT RESOLVED,false,false,false,false,false,false,false,3/9/2014,2014-03-09,4/6/2014 00:00,71,99,,10
CDISCPILOT01,AE,01-708-1178,5,E06,APPLICATION SITE PRURITUS,APPLICATION SITE ITCHING,,APPLICATION SITE PRURITUS,,HLT_0317,,HLGT_0338,,GENERAL DISORDERS AND ADMINISTRATION SITE CONDITIONS,,GENERAL DISORDERS AND ADMINISTRATION SITE CONDITIONS,,MILD,false,,PROBABLE,RECOVERED/RESOLVED,false,false,false,false,false,false,false,4/6/2014,2014-03-09,4/6/2014 00:00,71,99,,10
CDISCPILOT01,AE,01-708-1178,7,E10,ATRIAL FIBRILLATION,ATRIAL FIBRILLATION,,ATRIAL FIBRILLATION,,HLT_0365,,HLGT_0012,,CARDIAC DISORDERS,,CARDIAC DISORDERS,,SEVERE,false,,POSSIBLE,RECOVERED/RESOLVED,false,false,false,false,true,false,false,4/6/2014,2014-03-24,3/26/2014 04:00,86,88,,12
CDISCPILOT01,AE,01-708-1178,8,E11,CYSTITIS,BLADDER INFECTION,,CYSTITIS,,HLT_0739,,HLGT_0129,,INFECTIONS AND INFESTATIONS,,INFECTIONS AND INFESTATIONS,,MILD,false,,REMOTE,RECOVERED/RESOLVED,false,false,false,false,false,false,false,4/6/2014,2014-03-24,3/28/2014 04:00,86,90,,12
CDISCPILOT01,AE,01-708-1178,6,E09,DIZZINESS,LIGHT-HEADED,,DIZZINESS,,HLT_0619,,HLGT_0751,,NERVOUS SYSTEM DISORDERS,,NERVOUS SYSTEM DISORDERS,,SEVERE,false,,POSSIBLE,RECOVERED/RESOLVED,false,false,false,false,true,false,false,4/6/2014,2014-03-24,3/26/2014 04:00,86,88,,12
CDISCPILOT01,AE,01-708-1178,1,E03,FLANK PAIN,FLANK PAIN,,FLANK PAIN,,HLT_0484,,HLGT_0543,,MUSCULOSKELETAL AND CONNECTIVE TISSUE DISORDERS,,MUSCULOSKELETAL AND CONNECTIVE TISSUE DISORDERS,,MILD,false,,NONE,NOT RECOVERED/NOT RESOLVED,false,false,false,false,false,false,false,12/19/2013,2013-12-19,,5,10,,0
CDISCPILOT01,AE,01-708-1178,2,E05,NASOPHARYNGITIS,COLD,,NASOPHARYNGITIS,,HLT_0036,,HLGT_0709,,INFECTIONS AND INFESTATIONS,,INFECTIONS AND INFESTATIONS,,MILD,false,,NONE,RECOVERED/RESOLVED,false,false,false,false,false,false,false,3/9/2014,2014-03-01,3/8/2014 03:00,63,70,,9
CDISCPILOT01,AE,01-708-1178,4,E08,VENTRICULAR SEPTAL DEFECT,VENTRICULAR SEPTAL DEFECT,,VENTRICULAR SEPTAL DEFECT,,HLT_0589,,HLGT_0747,,"CONGENITAL, FAMILIAL AND GENETIC DISORDERS",,"CONGENITAL, FAMILIAL AND GENETIC DISORDERS",,MILD,false,,NONE,NOT RECOVERED/NOT RESOLVED,false,false,false,false,false,false,false,3/9/2014,2014-03-09,,71,,,10
CDISCPILOT01,AE,01-708-1213,1,E03,ATRIAL FIBRILLATION,ATRIAL FIBRILLATION,,ATRIAL FIBRILLATION,,HLT_0365,,HLGT_0012,,CARDIAC DISORDERS,,CARDIAC DISORDERS,,MILD,false,,POSSIBLE,NOT RECOVERED/NOT RESOLVED,false,false,false,false,false,false,false,2/22/2013,2013-02-22,2/22/2013 03:00,14,14,,2
CDISCPILOT01,AE,01-708-1213,2,E03,ATRIAL FIBRILLATION,ATRIAL FIBRILLATION,,ATRIAL FIBRILLATION,,HLT_0365,,HLGT_0012,,CARDIAC DISORDERS,,CARDIAC DISORDERS,,MILD,false,,POSSIBLE,RECOVERED/RESOLVED,false,false,false,false,false,false,false,2/26/2013,2013-02-22,2/22/2013 03:00,14,14,,2
CDISCPILOT01,AE,01-708-1216,2,E05,APPLICATION SITE ERYTHEMA,APPLICATION SITE REDNESS,,APPLICATION SITE ERYTHEMA,,HLT_0617,,HLGT_0152,,GENERAL DISORDERS AND ADMINISTRATION SITE CONDITIONS,,GENERAL DISORDERS AND ADMINISTRATION SITE CONDITIONS,,MILD,false,,PROBABLE,NOT RECOVERED/NOT RESOLVED,false,false,false,false,false,false,false,11/8/2012,2012-11-06,12/13/2012 03:00,14,51,,2
CDISCPILOT01,AE,01-708-1216,4,E05,APPLICATION SITE ERYTHEMA,APPLICATION SITE REDNESS,,APPLICATION SITE ERYTHEMA,,HLT_0617,,HLGT_0152,,GENERAL DISORDERS AND ADMINISTRATION SITE CONDITIONS,,GENERAL DISORDERS AND ADMINISTRATION SITE CONDITIONS,,MILD,false,,PROBABLE,RECOVERED/RESOLVED,false,false,false,false,false,false,false,1/9/2013,2012-11-06,12/13/2012 03:00,14,51,,2
CDISCPILOT01,AE,01-708-1216,1,E01,APPLICATION SITE PRURITUS,APPLICATION SITE ITCHING,,APPLICATION SITE PRURITUS,,HLT_0317,,HLGT_0338,,GENERAL DISORDERS AND ADMINISTRATION SITE CONDITIONS,,GENERAL DISORDERS AND ADMINISTRATION SITE CONDITIONS,,MILD,false,,PROBABLE,NOT RECOVERED/NOT RESOLVED,false,false,false,false,false,false,false,11/8/2012,2012-11-06,,14,,,2
CDISCPILOT01,AE,01-708-1216,3,E02,APPLICATION SITE SWELLING,APPLICATION SITE SWELLING,,APPLICATION SITE SWELLING,,HLT_0105,,HLGT_0236,,GENERAL DISORDERS AND ADMINISTRATION SITE CONDITIONS,,GENERAL DISORDERS AND ADMINISTRATION SITE CONDITIONS,,MILD,false,,PROBABLE,NOT RECOVERED/NOT RESOLVED,false,false,false,false,false,false,false,11/22/2012,2012-11-22,,30,,,4
CDISCPILOT01,AE,01-708-1253,2,E04,CONJUNCTIVITIS,CONJUNCTIVITIS,,CONJUNCTIVITIS,,HLT_0584,,HLGT_0335,,EYE DISORDERS,,EYE DISORDERS,,MILD,false,,NONE,NOT RECOVERED/NOT RESOLVED,false,false,false,false,false,false,false,5/7/2013,2013-05-06,5/16/2013 00:00,-1,10,,-1
CDISCPILOT01,AE,01-708-1253,5,E04,CONJUNCTIVITIS,CONJUNCTIVITIS,,CONJUNCTIVITIS,,HLT_0584,,HLGT_0335,,EYE DISORDERS,,EYE DISORDERS,,MILD,false,,NONE,RECOVERED/RESOLVED,false,false,false,false,false,false,false,5/21/2013,2013-05-06,5/16/2013 00:00,-1,10,,-1
CDISCPILOT01,AE,01-708-1253,1,E03,COUGH,COUGH,,COUGH,,HLT_0701,,HLGT_0280,,"RESPIRATORY, THORACIC AND MEDIASTINAL DISORDERS",,"RESPIRATORY, THORACIC AND MEDIASTINAL DISORDERS",,MILD,false,,NONE,NOT RECOVERED/NOT RESOLVED,false,false,false,false,false,false,false,5/7/2013,2013-05-06,5/16/2013 00:00,-1,10,,-1
CDISCPILOT01,AE,01-708-1253,4,E03,COUGH,COUGH,,COUGH,,HLT_0701,,HLGT_0280,,"RESPIRATORY, THORACIC AND MEDIASTINAL DISORDERS",,"RESPIRATORY, THORACIC AND MEDIASTINAL DISORDERS",,MILD,false,,NONE,RECOVERED/RESOLVED,false,false,false,false,false,false,false,5/21/2013,2013-05-06,5/16/2013 00:00,-1,10,,-1
CDISCPILOT01,AE,01-708-1253,7,E05,DIZZINESS,DIZZINESS,,DIZZINESS,,HLT_0619,,HLGT_0751,,NERVOUS SYSTEM DISORDERS,,NERVOUS SYSTEM DISORDERS,,MILD,false,,POSSIBLE,NOT RECOVERED/NOT RESOLVED,false,false,false,false,false,false,false,6/7/2013,2013-06-07,6/7/2013 00:00,32,32,,4
CDISCPILOT01,AE,01-708-1253,8,E05,DIZZINESS,DIZZINESS,,DIZZINESS,,HLT_0619,,HLGT_0751,,NERVOUS SYSTEM DISORDERS,,NERVOUS SYSTEM DISORDERS,,MILD,false,,POSSIBLE,RECOVERED/RESOLVED,false,false,false,false,false,false,false,6/9/2013,2013-06-07,6/7/2013 00:00,32,32,,4
CDISCPILOT01,AE,01-708-1253,3,E02,HEART RATE INCREASED,HEART RATE INCREASED,,HEART RATE INCREASED,,HLT_0646,,HLGT_0673,,INVESTIGATIONS,,INVESTIGATIONS,,MILD,false,,POSSIBLE,NOT RECOVERED/NOT RESOLVED,false,false,false,false,false,false,false,5/7/2013,2013-05-07,5/10/2013 00:00,1,4,,0
CDISCPILOT01,AE,01-708-1253,6,E02,HEART RATE INCREASED,HEART RATE INCREASED,,HEART RATE INCREASED,,HLT_0646,,HLGT_0673,,INVESTIGATIONS,,INVESTIGATIONS,,MILD,false,,POSSIBLE,RECOVERED/RESOLVED,false,false,false,false,false,false,false,5/21/2013,2013-05-07,5/10/2013 00:00,1,4,,0
CDISCPILOT01,AE,01-708-1272,4,E11,APPLICATION SITE DERMATITIS,APPLICATION SITE RASH,,APPLICATION SITE DERMATITIS,,HLT_0343,,HLGT_0241,,GENERAL DISORDERS AND ADMINISTRATION SITE CONDITIONS,,GENERAL DISORDERS AND ADMINISTRATION SITE CONDITIONS,,MILD,false,,PROBABLE,RECOVERED/RESOLVED,false,false,false,false,false,false,false,3/7/2013,2013-02-27,2/27/2013 03:00,22,22,,3
CDISCPILOT01,AE,01-708-1272,5,E08,COUGH,COUGH,,COUGH,,HLT_0701,,HLGT_0280,,"RESPIRATORY, THORACIC AND MEDIASTINAL DISORDERS",,"RESPIRATORY, THORACIC AND MEDIASTINAL DISORDERS",,MILD,false,,NONE,NOT RECOVERED/NOT RESOLVED,false,false,false,false,false,false,false,3/7/2013,2013-03-01,3/7/2013 03:00,24,30,,3
CDISCPILOT01,AE,01-708-1272,8,E08,COUGH,COUGH,,COUGH,,HLT_0701,,HLGT_0280,,"RESPIRATORY, THORACIC AND MEDIASTINAL DISORDERS",,"RESPIRATORY, THORACIC AND MEDIASTINAL DISORDERS",,MILD,false,,NONE,RECOVERED/RESOLVED,false,false,false,false,false,false,false,3/9/2013,2013-03-01,3/7/2013 03:00,24,30,,3
CDISCPILOT01,AE,01-708-1272,1,E12,DIARRHOEA,DIARRHEA,,DIARRHOEA,,HLT_0148,,HLGT_0588,,GASTROINTESTINAL DISORDERS,,GASTROINTESTINAL DISORDERS,,MILD,false,,NONE,RECOVERED/RESOLVED,false,false,false,false,false,false,false,2/21/2013,2013-02-11,2/11/2013 03:00,6,6,,0
CDISCPILOT01,AE,01-708-1272,7,E10,HEADACHE,HEADACHE,,HEADACHE,,HLT_0064,,HLGT_0344,,NERVOUS SYSTEM DISORDERS,,NERVOUS SYSTEM DISORDERS,,MILD,false,,NONE,NOT RECOVERED/NOT RESOLVED,false,false,false,false,false,false,false,3/7/2013,2013-03-07,3/7/2013 03:00,30,30,,4
CDISCPILOT01,AE,01-708-1272,10,E10,HEADACHE,HEADACHE,,HEADACHE,,HLT_0064,,HLGT_0344,,NERVOUS SYSTEM DISORDERS,,NERVOUS SYSTEM DISORDERS,,MILD,false,,NONE,RECOVERED/RESOLVED,false,false,false,false,false,false,false,3/9/2013,2013-03-07,3/7/2013 03:00,30,30,,4
CDISCPILOT01,AE,01-708-1272,11,E14,HOT FLUSH,HOT FLASHES,,HOT FLUSH,,HLT_0737,,HLGT_0773,,VASCULAR DISORDERS,,VASCULAR DISORDERS,,MILD,false,,NONE,RECOVERED/RESOLVED,false,false,false,false,false,false,false,3/20/2013,2013-03-19,3/19/2013 04:00,42,42,,6
CDISCPILOT01,AE,01-708-1272,2,E13,MUSCLE SPASMS,LEG CRAMPS,,MUSCLE SPASMS,,HLT_0078,,HLGT_0750,,MUSCULOSKELETAL AND CONNECTIVE TISSUE DISORDERS,,MUSCULOSKELETAL AND CONNECTIVE TISSUE DISORDERS,,SEVERE,false,,NONE,RECOVERED/RESOLVED,false,false,false,false,false,false,false,2/21/2013,2013-02-18,2/18/2013 03:00,13,13,,1
CDISCPILOT01,AE,01-708-1272,6,E09,NASOPHARYNGITIS,COLD,,NASOPHARYNGITIS,,HLT_0036,,HLGT_0709,,INFECTIONS AND INFESTATIONS,,INFECTIONS AND INFESTATIONS,,MILD,false,,NONE,NOT RECOVERED/NOT RESOLVED,false,false,false,false,false,false,false,3/7/2013,2013-03-01,3/7/2013 03:00,24,30,,3
CDISCPILOT01,AE,01-708-1272,9,E09,NASOPHARYNGITIS,COLD,,NASOPHARYNGITIS,,HLT_0036,,HLGT_0709,,INFECTIONS AND INFESTATIONS,,INFECTIONS AND INFESTATIONS,,MILD,false,,NONE,RECOVERED/RESOLVED,false,false,false,false,false,false,false,3/9/2013,2013-03-01,3/7/2013 03:00,24,30,,3
CDISCPILOT01,AE,01-708-1272,3,E05,VENTRICULAR EXTRASYSTOLES,VENTRICULAR BIGEMINY,,VENTRICULAR EXTRASYSTOLES,,HLT_0050,,HLGT_0594,,CARDIAC DISORDERS,,CARDIAC DISORDERS,,MILD,false,,REMOTE,NOT RECOVERED/NOT RESOLVED,false,false,false,false,false,false,false,2/21/2013,2013-02-21,3/20/2013 04:00,16,43,,2
CDISCPILOT01,AE,01-708-1272,12,E05,VENTRICULAR EXTRASYSTOLES,VENTRICULAR BIGEMINY,,VENTRICULAR EXTRASYSTOLES,,HLT_0050,,HLGT_0594,,CARDIAC DISORDERS,,CARDIAC DISORDERS,,MILD,false,,REMOTE,RECOVERED/RESOLVED,false,false,false,false,false,false,false,4/4/2013,2013-02-21,3/20/2013 04:00,16,43,,2
CDISCPILOT01,AE,01-708-1286,3,E08,ABDOMINAL PAIN,ABDOMINAL PAIN,,ABDOMINAL PAIN,,HLT_0217,,HLGT_0419,,GASTROINTESTINAL DISORDERS,,GASTROINTESTINAL DISORDERS,,MILD,false,,REMOTE,RECOVERED/RESOLVED,false,false,false,false,false,false,false,2/23/2014,2014-02-18,2/18/2014 03:00,162,162,,23
CDISCPILOT01,AE,01-708-1286,1,E06,APPLICATION SITE PRURITUS,APPLICATION SITE ITCHING,,APPLICATION SITE PRURITUS,,HLT_0317,,HLGT_0338,,GENERAL DISORDERS AND ADMINISTRATION SITE CONDITIONS,,GENERAL DISORDERS AND ADMINISTRATION SITE CONDITIONS,,MILD,false,,PROBABLE,NOT RECOVERED/NOT RESOLVED,false,false,false,false,false,false,false,9/23/2013,2013-09-12,,3,,,0
CDISCPILOT01,AE,01-708-1286,4,E09,CONSTIPATION,CONSTIPATION,,CONSTIPATION,,HLT_0402,,HLGT_0635,,GASTROINTESTINAL DISORDERS,,GASTROINTESTINAL DISORDERS,,MILD,false,,REMOTE,RECOVERED/RESOLVED,false,false,false,false,false,false,false,2/23/2014,2014-02-18,2/18/2014 03:00,162,162,,23
CDISCPILOT01,AE,01-708-1286,2,E04,MYOCARDIAL INFARCTION,INFERIOR MYOCARDIAL INFARCTION,,MYOCARDIAL INFARCTION,,HLT_0649,,HLGT_0688,,CARDIAC DISORDERS,,CARDIAC DISORDERS,,MILD,false,,REMOTE,NOT RECOVERED/NOT RESOLVED,false,false,false,false,false,false,false,9/23/2013,2013-09-23,,14,,,2
CDISCPILOT01,AE,01-708-1296,3,E04,APPLICATION SITE PRURITUS,APPLICATION SITE ITCHING,,APPLICATION SITE PRURITUS,,HLT_0317,,HLGT_0338,,GENERAL DISORDERS AND ADMINISTRATION SITE CONDITIONS,,GENERAL DISORDERS AND ADMINISTRATION SITE CONDITIONS,,MILD,false,,PROBABLE,NOT RECOVERED/NOT RESOLVED,false,false,false,false,false,false,false,9/4/2013,2013-09-04,9/18/2013 00:00,83,97,,11
CDISCPILOT01,AE,01-708-1296,4,E04,APPLICATION SITE PRURITUS,APPLICATION SITE ITCHING,,APPLICATION SITE PRURITUS,,HLT_0317,,HLGT_0338,,GENERAL DISORDERS AND ADMINISTRATION SITE CONDITIONS,,GENERAL DISORDERS AND ADMINISTRATION SITE CONDITIONS,,MILD,false,,PROBABLE,RECOVERED/RESOLVED,false,false,false,false,false,false,false,10/2/2013,2013-09-04,9/18/2013 00:00,83,97,,11
CDISCPILOT01,AE,01-708-1296,5,E05,APPLICATION SITE VESICLES,APPLICATION SITE BLISTER,,APPLICATION SITE VESICLES,,HLT_0180,,HLGT_0576,,GENERAL DISORDERS AND ADMINISTRATION SITE CONDITIONS,,GENERAL DISORDERS AND ADMINISTRATION SITE CONDITIONS,,MILD,false,,PROBABLE,NOT RECOVERED/NOT RESOLVED,false,false,false,false,false,false,false,10/30/2013,2013-10-04,10/30/2013 04:00,113,139,,16
CDISCPILOT01,AE,01-708-1296,6,E05,APPLICATION SITE VESICLES,APPLICATION SITE BLISTER,,APPLICATION SITE VESICLES,,HLT_0180,,HLGT_0576,,GENERAL DISORDERS AND ADMINISTRATION SITE CONDITIONS,,GENERAL DISORDERS AND ADMINISTRATION SITE CONDITIONS,,MILD,false,,PROBABLE,RECOVERED/RESOLVED,false,false,false,false,false,false,false,11/27/2013,2013-10-04,10/30/2013 04:00,113,139,,16
CDISCPILOT01,AE,01-708-1296,1,E03,ATRIAL HYPERTROPHY,LEFT ATRIAL HYPERTROPHY,,ATRIAL HYPERTROPHY,,HLT_0271,,HLGT_0067,,CARDIAC DISORDERS,,CARDIAC DISORDERS,,MILD,false,,REMOTE,NOT RECOVERED/NOT RESOLVED,false,false,false,false,false,false,false,6/27/2013,2013-06-27,6/27/2013 00:00,14,14,,2
CDISCPILOT01,AE,01-708-1296,2,E03,ATRIAL HYPERTROPHY,LEFT ATRIAL HYPERTROPHY,,ATRIAL HYPERTROPHY,,HLT_0271,,HLGT_0067,,CARDIAC DISORDERS,,CARDIAC DISORDERS,,MILD,false,,REMOTE,RECOVERED/RESOLVED,false,false,false,false,false,false,false,7/10/2013,2013-06-27,6/27/2013 00:00,14,14,,2
CDISCPILOT01,AE,01-708-1296,7,E07,PAIN IN EXTREMITY,PAIN IN THIGH,,PAIN IN EXTREMITY,,HLT_0213,,HLGT_0764,,MUSCULOSKELETAL AND CONNECTIVE TISSUE DISORDERS,,MUSCULOSKELETAL AND CONNECTIVE TISSUE DISORDERS,,MILD,false,,REMOTE,RECOVERED/RESOLVED,false,false,false,false,false,false,false,12/12/2013,2013-12-07,12/7/2013 03:00,177,177,,25
CDISCPILOT01,AE,01-708-1297,1,E02,APPLICATION SITE PRURITUS,APPLICATION SITE ITCHING,,APPLICATION SITE PRURITUS,,HLT_0317,,HLGT_0338,,GENERAL DISORDERS AND ADMINISTRATION SITE CONDITIONS,,GENERAL DISORDERS AND ADMINISTRATION SITE CONDITIONS,,MILD,false,,PROBABLE,NOT RECOVERED/NOT RESOLVED,false,false,false,false,false,false,false,4/16/2013,2013-04-02,,68,,,9
CDISCPILOT01,AE,01-708-1297,2,E03,APPLICATION SITE SWELLING,APPLICATION SITE SWELLING,,APPLICATION SITE SWELLING,,HLT_0105,,HLGT_0236,,GENERAL DISORDERS AND ADMINISTRATION SITE CONDITIONS,,GENERAL DISORDERS AND ADMINISTRATION SITE CONDITIONS,,MILD,false,,PROBABLE,NOT RECOVERED/NOT RESOLVED,false,false,false,false,false,false,false,4/16/2013,2013-04-02,,68,,,9
CDISCPILOT01,AE,01-708-1297,3,E04,SINUS BRADYCARDIA,SINUS BRADYCARDIA,,SINUS BRADYCARDIA,,HLT_0644,,HLGT_0500,,CARDIAC DISORDERS,,CARDIAC DISORDERS,,MILD,false,,REMOTE,NOT RECOVERED/NOT RESOLVED,false,false,false,false,false,false,false,5/8/2013,2013-05-08,,104,,,14
CDISCPILOT01,AE,01-708-1316,2,E04,APPLICATION SITE ERYTHEMA,APPLICATION SITE REDNESS,,APPLICATION SITE ERYTHEMA,,HLT_0617,,HLGT_0152,,GENERAL DISORDERS AND ADMINISTRATION SITE CONDITIONS,,GENERAL DISORDERS AND ADMINISTRATION SITE CONDITIONS,,MILD,false,,PROBABLE,NOT RECOVERED/NOT RESOLVED,false,false,false,false,false,false,false,2/15/2014,2014-02-15,,177,,,25
CDISCPILOT01,AE,01-708-1316,1,E05,HEADACHE,HEADACHE,,HEADACHE,,HLT_0064,,HLGT_0344,,NERVOUS SYSTEM DISORDERS,,NERVOUS SYSTEM DISORDERS,,MILD,false,,POSSIBLE,NOT RECOVERED/NOT RESOLVED,false,false,false,false,false,false,false,2/15/2014,2014-01-29,,160,,,22
CDISCPILOT01,AE,01-708-1336,5,E11,APPLICATION SITE ERYTHEMA,APPLICATION SITE REDNESS,,APPLICATION SITE ERYTHEMA,,HLT_0617,,HLGT_0152,,GENERAL DISORDERS AND ADMINISTRATION SITE CONDITIONS,,GENERAL DISORDERS AND ADMINISTRATION SITE CONDITIONS,,MILD,false,,PROBABLE,NOT RECOVERED/NOT RESOLVED,false,false,false,false,false,false,false,4/23/2013,2013-04-10,6/5/2013 00:00,125,181,,17
CDISCPILOT01,AE,01-708-1336,7,E11,APPLICATION SITE ERYTHEMA,APPLICATION SITE REDNESS,,APPLICATION SITE ERYTHEMA,,HLT_0617,,HLGT_0152,,GENERAL DISORDERS AND ADMINISTRATION SITE CONDITIONS,,GENERAL DISORDERS AND ADMINISTRATION SITE CONDITIONS,,MILD,false,,PROBABLE,RECOVERED/RESOLVED,false,false,false,false,false,false,false,7/5/2013,2013-04-10,6/5/2013 00:00,125,181,,17
CDISCPILOT01,AE,01-708-1336,2,E08,APPLICATION SITE PRURITUS,APPLICATION SITE ITCHING,,APPLICATION SITE PRURITUS,,HLT_0317,,HLGT_0338,,GENERAL DISORDERS AND ADMINISTRATION SITE CONDITIONS,,GENERAL DISORDERS AND ADMINISTRATION SITE CONDITIONS,,MILD,false,,PROBABLE,RECOVERED/RESOLVED,false,false,false,false,false,false,false,1/15/2013,2013-01-12,1/12/2013 03:00,37,37,,5
CDISCPILOT01,AE,01-708-1336,4,E10,APPLICATION SITE PRURITUS,APPLICATION SITE ITCHING,,APPLICATION SITE PRURITUS,,HLT_0317,,HLGT_0338,,GENERAL DISORDERS AND ADMINISTRATION SITE CONDITIONS,,GENERAL DISORDERS AND ADMINISTRATION SITE CONDITIONS,,MILD,false,,PROBABLE,NOT RECOVERED/NOT RESOLVED,false,false,false,false,false,false,false,4/23/2013,2013-04-10,6/5/2013 00:00,125,181,,17
CDISCPILOT01,AE,01-708-1336,6,E10,APPLICATION SITE PRURITUS,APPLICATION SITE ITCHING,,APPLICATION SITE PRURITUS,,HLT_0317,,HLGT_0338,,GENERAL DISORDERS AND ADMINISTRATION SITE CONDITIONS,,GENERAL DISORDERS AND ADMINISTRATION SITE CONDITIONS,,MILD,false,,PROBABLE,RECOVERED/RESOLVED,false,false,false,false,false,false,false,7/5/2013,2013-04-10,6/5/2013 00:00,125,181,,17
CDISCPILOT01,AE,01-708-1336,1,E06,DIZZINESS,LIGHTHEADEDNESS,,DIZZINESS,,HLT_0619,,HLGT_0751,,NERVOUS SYSTEM DISORDERS,,NERVOUS SYSTEM DISORDERS,,MILD,false,,POSSIBLE,RECOVERED/RESOLVED,false,false,false,false,false,false,false,12/21/2012,2012-12-18,12/18/2012 03:00,12,12,,1
CDISCPILOT01,AE,01-708-1336,3,E09,DIZZINESS,LIGHT HEADEDNESS,,DIZZINESS,,HLT_0619,,HLGT_0751,,NERVOUS SYSTEM DISORDERS,,NERVOUS SYSTEM DISORDERS,,MILD,false,,POSSIBLE,RECOVERED/RESOLVED,false,false,false,false,false,false,false,2/27/2013,2013-02-02,2/2/2013 03:00,58,58,,8
CDISCPILOT01,AE,01-708-1347,3,E04,APPLICATION SITE ERYTHEMA,APPLICATION SITE REDNESS,,APPLICATION SITE ERYTHEMA,,HLT_0617,,HLGT_0152,,GENERAL DISORDERS AND ADMINISTRATION SITE CONDITIONS,,GENERAL DISORDERS AND ADMINISTRATION SITE CONDITIONS,,MODERATE,false,,PROBABLE,NOT RECOVERED/NOT RESOLVED,false,false,false,false,false,false,false,6/13/2013,2013-06-13,6/25/2013 00:00,55,67,,7
CDISCPILOT01,AE,01-708-1347,7,E04,APPLICATION SITE ERYTHEMA,APPLICATION SITE REDNESS,,APPLICATION SITE ERYTHEMA,,HLT_0617,,HLGT_0152,,GENERAL DISORDERS AND ADMINISTRATION SITE CONDITIONS,,GENERAL DISORDERS AND ADMINISTRATION SITE CONDITIONS,,MODERATE,false,,PROBABLE,RECOVERED/RESOLVED,false,false,false,false,false,false,false,8/2/2013,2013-06-13,6/25/2013 00:00,55,67,,7
CDISCPILOT01,AE,01-708-1347,4,E05,APPLICATION SITE SWELLING,APPLICATION SITE SWELLING,,APPLICATION SITE SWELLING,,HLT_0105,,HLGT_0236,,GENERAL DISORDERS AND ADMINISTRATION SITE CONDITIONS,,GENERAL DISORDERS AND ADMINISTRATION SITE CONDITIONS,,MODERATE,false,,PROBABLE,NOT RECOVERED/NOT RESOLVED,false,false,false,false,false,false,false,6/13/2013,2013-06-13,6/25/2013 00:00,55,67,,7
CDISCPILOT01,AE,01-708-1347,8,E05,APPLICATION SITE SWELLING,APPLICATION SITE SWELLING,,APPLICATION SITE SWELLING,,HLT_0105,,HLGT_0236,,GENERAL DISORDERS AND ADMINISTRATION SITE CONDITIONS,,GENERAL DISORDERS AND ADMINISTRATION SITE CONDITIONS,,MODERATE,false,,PROBABLE,RECOVERED/RESOLVED,false,false,false,false,false,false,false,8/2/2013,2013-06-13,6/25/2013 00:00,55,67,,7
CDISCPILOT01,AE,01-708-1347,2,E03,ERYTHEMA,ERYTHEMA,,ERYTHEMA,,HLT_0284,,HLGT_0192,,SKIN AND SUBCUTANEOUS TISSUE DISORDERS,,SKIN AND SUBCUTANEOUS TISSUE DISORDERS,,MODERATE,false,,PROBABLE,NOT RECOVERED/NOT RESOLVED,false,false,false,false,false,false,false,6/13/2013,2013-06-13,6/25/2013 00:00,55,67,,7
CDISCPILOT01,AE,01-708-1347,6,E03,ERYTHEMA,ERYTHEMA,,ERYTHEMA,,HLT_0284,,HLGT_0192,,SKIN AND SUBCUTANEOUS TISSUE DISORDERS,,SKIN AND SUBCUTANEOUS TISSUE DISORDERS,,MODERATE,false,,PROBABLE,RECOVERED/RESOLVED,false,false,false,false,false,false,false,8/2/2013,2013-06-13,6/25/2013 00:00,55,67,,7
CDISCPILOT01,AE,01-708-1347,1,E02,PRURITUS,ITCHING,,PRURITUS,,HLT_0778,,HLGT_0695,,SKIN AND SUBCUTANEOUS TISSUE DISORDERS,,SKIN AND SUBCUTANEOUS TISSUE DISORDERS,,MILD,false,,PROBABLE,NOT RECOVERED/NOT RESOLVED,false,false,false,false,false,false,false,6/13/2013,2013-06-13,6/25/2013 00:00,55,67,,7
CDISCPILOT01,AE,01-708-1347,5,E02,PRURITUS,ITCHING,,PRURITUS,,HLT_0778,,HLGT_0695,,SKIN AND SUBCUTANEOUS TISSUE DISORDERS,,SKIN AND SUBCUTANEOUS TISSUE DISORDERS,,MILD,false,,PROBABLE,RECOVERED/RESOLVED,false,false,false,false,false,false,false,8/2/2013,2013-06-13,6/25/2013 00:00,55,67,,7
CDISCPILOT01,AE,01-708-1348,3,E05,APPLICATION SITE PRURITUS,APPLICATION SITE ITCHING,,APPLICATION SITE PRURITUS,,HLT_0317,,HLGT_0338,,GENERAL DISORDERS AND ADMINISTRATION SITE CONDITIONS,,GENERAL DISORDERS AND ADMINISTRATION SITE CONDITIONS,,MILD,false,,PROBABLE,NOT RECOVERED/NOT RESOLVED,false,false,false,false,false,false,false,12/1/2013,2013-12-01,,119,,,17
CDISCPILOT01,AE,01-708-1348,1,E04,MYOCARDIAL INFARCTION,ANTEROSEPTAL INFARCTION,,MYOCARDIAL INFARCTION,,HLT_0649,,HLGT_0688,,CARDIAC DISORDERS,,CARDIAC DISORDERS,,MILD,false,,POSSIBLE,NOT RECOVERED/NOT RESOLVED,false,false,false,false,false,false,false,8/19/2013,2013-08-18,8/31/2013 00:00,14,27,,2
CDISCPILOT01,AE,01-708-1348,2,E04,MYOCARDIAL INFARCTION,ANTEROSEPTAL INFARCTION,,MYOCARDIAL INFARCTION,,HLT_0649,,HLGT_0688,,CARDIAC DISORDERS,,CARDIAC DISORDERS,,MILD,false,,POSSIBLE,RECOVERED/RESOLVED,false,false,false,false,false,false,false,9/2/2013,2013-08-18,8/31/2013 00:00,14,27,,2
CDISCPILOT01,AE,01-708-1353,1,E09,DIZZINESS,DIZZINESS,,DIZZINESS,,HLT_0619,,HLGT_0751,,NERVOUS SYSTEM DISORDERS,,NERVOUS SYSTEM DISORDERS,,MILD,false,,REMOTE,NOT RECOVERED/NOT RESOLVED,false,false,false,false,false,false,false,8/18/2013,2013-08-18,9/10/2013 00:00,46,69,,6
CDISCPILOT01,AE,01-708-1353,2,E09,DIZZINESS,DIZZINESS,,DIZZINESS,,HLT_0619,,HLGT_0751,,NERVOUS SYSTEM DISORDERS,,NERVOUS SYSTEM DISORDERS,,MILD,false,,REMOTE,RECOVERED/RESOLVED,false,false,false,false,false,false,false,9/10/2013,2013-08-18,9/10/2013 00:00,46,69,,6
CDISCPILOT01,AE,01-708-1353,3,E10,HYPOTENSION,LOW BLOOD PRESSURE,,HYPOTENSION,,HLT_0761,,HLGT_0412,,VASCULAR DISORDERS,,VASCULAR DISORDERS,,MILD,false,,POSSIBLE,RECOVERED/RESOLVED,false,false,false,false,false,false,false,9/10/2013,2013-08-28,9/10/2013 00:00,56,69,,8
CDISCPILOT01,AE,01-708-1372,1,E03,ATRIOVENTRICULAR BLOCK SECOND DEGREE,AV BLOCK SECOND DEGREE,,ATRIOVENTRICULAR BLOCK SECOND DEGREE,,HLT_0415,,HLGT_0086,,CARDIAC DISORDERS,,CARDIAC DISORDERS,,MODERATE,false,,NONE,NOT RECOVERED/NOT RESOLVED,false,false,false,false,false,false,false,4/10/2013,2013-04-10,,-2,,,-1
CDISCPILOT01,AE,01-708-1406,1,E03,OEDEMA PERIPHERAL,SWELLING OF LEGS,,OEDEMA PERIPHERAL,,HLT_0661,,HLGT_0137,,GENERAL DISORDERS AND ADMINISTRATION SITE CONDITIONS,,GENERAL DISORDERS AND ADMINISTRATION SITE CONDITIONS,,MILD,false,,NONE,NOT RECOVERED/NOT RESOLVED,false,false,false,false,false,false,false,6/16/2014,2014-06-16,,173,,,24
CDISCPILOT01,AE,01-708-1406,2,E04,OEDEMA PERIPHERAL,SWELLING OF LEGS,,OEDEMA PERIPHERAL,,HLT_0661,,HLGT_0137,,GENERAL DISORDERS AND ADMINISTRATION SITE CONDITIONS,,GENERAL DISORDERS AND ADMINISTRATION SITE CONDITIONS,,MILD,false,,NONE,NOT RECOVERED/NOT RESOLVED,false,false,false,false,false,false,false,6/16/2014,2014-06-16,,173,,,24
CDISCPILOT01,AE,01-708-1428,3,E02,APPLICATION SITE ERYTHEMA,APPLICATION SITE REDNESS,,APPLICATION SITE ERYTHEMA,,HLT_0617,,HLGT_0152,,GENERAL DISORDERS AND ADMINISTRATION SITE CONDITIONS,,GENERAL DISORDERS AND ADMINISTRATION SITE CONDITIONS,,MODERATE,false,,PROBABLE,NOT RECOVERED/NOT RESOLVED,false,false,false,false,false,false,false,12/10/2013,2013-12-10,12/21/2013 03:00,32,43,,4
CDISCPILOT01,AE,01-708-1428,6,E02,APPLICATION SITE ERYTHEMA,APPLICATION SITE REDNESS,,APPLICATION SITE ERYTHEMA,,HLT_0617,,HLGT_0152,,GENERAL DISORDERS AND ADMINISTRATION SITE CONDITIONS,,GENERAL DISORDERS AND ADMINISTRATION SITE CONDITIONS,,SEVERE,false,,PROBABLE,RECOVERED/RESOLVED,false,false,false,false,false,false,false,12/26/2013,2013-12-10,12/21/2013 03:00,32,43,,4
CDISCPILOT01,AE,01-708-1428,2,E01,APPLICATION SITE PRURITUS,APPLICATION SITE ITCHING,,APPLICATION SITE PRURITUS,,HLT_0317,,HLGT_0338,,GENERAL DISORDERS AND ADMINISTRATION SITE CONDITIONS,,GENERAL DISORDERS AND ADMINISTRATION SITE CONDITIONS,,MODERATE,false,,PROBABLE,NOT RECOVERED/NOT RESOLVED,false,false,false,false,false,false,false,12/10/2013,2013-12-10,12/21/2013 03:00,32,43,,4
CDISCPILOT01,AE,01-708-1428,5,E01,APPLICATION SITE PRURITUS,APPLICATION SITE ITCHING,,APPLICATION SITE PRURITUS,,HLT_0317,,HLGT_0338,,GENERAL DISORDERS AND ADMINISTRATION SITE CONDITIONS,,GENERAL DISORDERS AND ADMINISTRATION SITE CONDITIONS,,SEVERE,false,,PROBABLE,RECOVERED/RESOLVED,false,false,false,false,false,false,false,12/26/2013,2013-12-10,12/21/2013 03:00,32,43,,4
CDISCPILOT01,AE,01-708-1428,4,E03,APPLICATION SITE WARMTH,APPLICATION SITE WARMTH,,APPLICATION SITE WARMTH,,HLT_0260,,HLGT_0301,,GENERAL DISORDERS AND ADMINISTRATION SITE CONDITIONS,,GENERAL DISORDERS AND ADMINISTRATION SITE CONDITIONS,,MODERATE,false,,PROBABLE,NOT RECOVERED/NOT RESOLVED,false,false,false,false,false,false,false,12/10/2013,2013-12-10,12/21/2013 03:00,32,43,,4
CDISCPILOT01,AE,01-708-1428,7,E03,APPLICATION SITE WARMTH,APPLICATION SITE WARMTH,,APPLICATION SITE WARMTH,,HLT_0260,,HLGT_0301,,GENERAL DISORDERS AND ADMINISTRATION SITE CONDITIONS,,GENERAL DISORDERS AND ADMINISTRATION SITE CONDITIONS,,SEVERE,false,,PROBABLE,RECOVERED/RESOLVED,false,false,false,false,false,false,false,12/26/2013,2013-12-10,12/21/2013 03:00,32,43,,4
CDISCPILOT01,AE,01-708-1428,1,E04,EPISTAXIS,NOSE BLEED,,EPISTAXIS,,HLT_0386,,HLGT_0577,,"RESPIRATORY, THORACIC AND MEDIASTINAL DISORDERS",,"RESPIRATORY, THORACIC AND MEDIASTINAL DISORDERS",,MILD,false,,REMOTE,RECOVERED/RESOLVED,false,false,false,false,false,false,false,11/23/2013,2013-11-22,11/22/2013 03:00,14,14,,2
CDISCPILOT01,AE,01-709-1007,1,E02,APPLICATION SITE DERMATITIS,APPLICATION SITE RASH,,APPLICATION SITE DERMATITIS,,HLT_0343,,HLGT_0241,,GENERAL DISORDERS AND ADMINISTRATION SITE CONDITIONS,,GENERAL DISORDERS AND ADMINISTRATION SITE CONDITIONS,,MILD,false,,PROBABLE,NOT RECOVERED/NOT RESOLVED,false,false,false,false,false,false,false,8/18/2012,2012-08-16,8/19/2012 00:00,17,20,,2
CDISCPILOT01,AE,01-709-1007,2,E02,APPLICATION SITE DERMATITIS,APPLICATION SITE RASH,,APPLICATION SITE DERMATITIS,,HLT_0343,,HLGT_0241,,GENERAL DISORDERS AND ADMINISTRATION SITE CONDITIONS,,GENERAL DISORDERS AND ADMINISTRATION SITE CONDITIONS,,MILD,false,,PROBABLE,RECOVERED/RESOLVED,false,false,false,false,false,false,false,9/1/2012,2012-08-16,8/19/2012 00:00,17,20,,2
CDISCPILOT01,AE,01-709-1007,3,E03,APPLICATION SITE DERMATITIS,APPLICATION SITE RASH,,APPLICATION SITE DERMATITIS,,HLT_0343,,HLGT_0241,,GENERAL DISORDERS AND ADMINISTRATION SITE CONDITIONS,,GENERAL DISORDERS AND ADMINISTRATION SITE CONDITIONS,,SEVERE,false,,PROBABLE,NOT RECOVERED/NOT RESOLVED,false,false,false,false,false,false,false,9/1/2012,2012-08-21,,22,,,3
CDISCPILOT01,AE,01-709-1007,4,E04,DIARRHOEA,DIARRHEA,,DIARRHOEA,,HLT_0148,,HLGT_0588,,GASTROINTESTINAL DISORDERS,,GASTROINTESTINAL DISORDERS,,MILD,false,,POSSIBLE,RECOVERED/RESOLVED,false,false,false,false,false,false,false,9/1/2012,2012-08-30,8/30/2012 00:00,31,31,,4
CDISCPILOT01,AE,01-709-1020,3,E03,ABDOMINAL PAIN,ABDOMINAL PAIN,,ABDOMINAL PAIN,,HLT_0217,,HLGT_0419,,GASTROINTESTINAL DISORDERS,,GASTROINTESTINAL DISORDERS,,MILD,false,,POSSIBLE,RECOVERED/RESOLVED,false,false,false,false,false,false,false,1/12/2013,2013-01-03,1/11/2013 03:00,34,42,,4
CDISCPILOT01,AE,01-709-1020,1,E01,APPLICATION SITE DERMATITIS,APPLICATION SITE RASH,,APPLICATION SITE DERMATITIS,,HLT_0343,,HLGT_0241,,GENERAL DISORDERS AND ADMINISTRATION SITE CONDITIONS,,GENERAL DISORDERS AND ADMINISTRATION SITE CONDITIONS,,MILD,false,,PROBABLE,NOT RECOVERED/NOT RESOLVED,false,false,false,false,false,false,false,12/27/2012,2012-12-27,,27,,,3
CDISCPILOT01,AE,01-709-1020,4,E04,APPLICATION SITE PRURITUS,APPLICATION SITE ITCHING,,APPLICATION SITE PRURITUS,,HLT_0317,,HLGT_0338,,GENERAL DISORDERS AND ADMINISTRATION SITE CONDITIONS,,GENERAL DISORDERS AND ADMINISTRATION SITE CONDITIONS,,MILD,false,,PROBABLE,NOT RECOVERED/NOT RESOLVED,false,false,false,false,false,false,false,1/26/2013,2013-01-15,,46,,,6
CDISCPILOT01,AE,01-709-1020,2,E02,DIARRHOEA,DIARRHEA,,DIARRHOEA,,HLT_0148,,HLGT_0588,,GASTROINTESTINAL DISORDERS,,GASTROINTESTINAL DISORDERS,,MILD,false,,POSSIBLE,RECOVERED/RESOLVED,false,false,false,false,false,false,false,1/12/2013,2013-01-03,1/11/2013 03:00,34,42,,4
CDISCPILOT01,AE,01-709-1029,2,E08,APPLICATION SITE ERYTHEMA,APPLICATION SITE REDNESS,,APPLICATION SITE ERYTHEMA,,HLT_0617,,HLGT_0152,,GENERAL DISORDERS AND ADMINISTRATION SITE CONDITIONS,,GENERAL DISORDERS AND ADMINISTRATION SITE CONDITIONS,,MILD,false,,PROBABLE,NOT RECOVERED/NOT RESOLVED,false,false,false,false,false,false,false,1/21/2013,2013-01-17,,24,,,3
CDISCPILOT01,AE,01-709-1029,10,E11,COUGH,COUGH,,COUGH,,HLT_0701,,HLGT_0280,,"RESPIRATORY, THORACIC AND MEDIASTINAL DISORDERS",,"RESPIRATORY, THORACIC AND MEDIASTINAL DISORDERS",,MILD,false,,NONE,NOT RECOVERED/NOT RESOLVED,false,false,false,false,false,false,false,5/15/2013,2013-05-12,5/19/2013 00:00,139,146,,19
CDISCPILOT01,AE,01-709-1029,13,E11,COUGH,COUGH,,COUGH,,HLT_0701,,HLGT_0280,,"RESPIRATORY, THORACIC AND MEDIASTINAL DISORDERS",,"RESPIRATORY, THORACIC AND MEDIASTINAL DISORDERS",,MILD,false,,NONE,RECOVERED/RESOLVED,false,false,false,false,false,false,false,6/12/2013,2013-05-12,5/19/2013 00:00,139,146,,19
CDISCPILOT01,AE,01-709-1029,3,E07,MUSCLE SPASMS,CRAMP,,MUSCLE SPASMS,,HLT_0078,,HLGT_0750,,MUSCULOSKELETAL AND CONNECTIVE TISSUE DISORDERS,,MUSCULOSKELETAL AND CONNECTIVE TISSUE DISORDERS,,MILD,false,,REMOTE,NOT RECOVERED/NOT RESOLVED,false,false,false,false,false,false,false,2/6/2013,2013-01-24,2/27/2013 03:00,31,65,,4
CDISCPILOT01,AE,01-709-1029,5,E07,MUSCLE SPASMS,CRAMP,,MUSCLE SPASMS,,HLT_0078,,HLGT_0750,,MUSCULOSKELETAL AND CONNECTIVE TISSUE DISORDERS,,MUSCULOSKELETAL AND CONNECTIVE TISSUE DISORDERS,,MILD,false,,REMOTE,RECOVERED/RESOLVED,false,false,false,false,false,false,false,3/20/2013,2013-01-24,2/27/2013 03:00,31,65,,4
CDISCPILOT01,AE,01-709-1029,1,E09,MYOCARDIAL INFARCTION,SEPTAL MYOCARDIAL INFARCTION,,MYOCARDIAL INFARCTION,,HLT_0649,,HLGT_0688,,CARDIAC DISORDERS,,CARDIAC DISORDERS,,MILD,false,,NONE,NOT RECOVERED/NOT RESOLVED,false,false,false,false,false,false,false,1/9/2013,2013-01-09,2/19/2013 03:00,16,57,,2
CDISCPILOT01,AE,01-709-1029,4,E09,MYOCARDIAL INFARCTION,SEPTAL MYOCARDIAL INFARCTION,,MYOCARDIAL INFARCTION,,HLT_0649,,HLGT_0688,,CARDIAC DISORDERS,,CARDIAC DISORDERS,,MILD,false,,NONE,RECOVERED/RESOLVED,false,false,false,false,false,false,false,3/20/2013,2013-01-09,2/19/2013 03:00,16,57,,2
CDISCPILOT01,AE,01-709-1029,6,E10,MYOCARDIAL INFARCTION,SEPTAL MYOCARDIAL INFARCTION,,MYOCARDIAL INFARCTION,,HLT_0649,,HLGT_0688,,CARDIAC DISORDERS,,CARDIAC DISORDERS,,MILD,false,,NONE,NOT RECOVERED/NOT RESOLVED,false,false,false,false,false,false,false,3/20/2013,2013-03-20,4/16/2013 00:00,86,113,,12
CDISCPILOT01,AE,01-709-1029,8,E10,MYOCARDIAL INFARCTION,SEPTAL MYOCARDIAL INFARCTION,,MYOCARDIAL INFARCTION,,HLT_0649,,HLGT_0688,,CARDIAC DISORDERS,,CARDIAC DISORDERS,,MILD,false,,NONE,RECOVERED/RESOLVED,false,false,false,false,false,false,false,5/15/2013,2013-03-20,4/16/2013 00:00,86,113,,12
CDISCPILOT01,AE,01-709-1029,12,E13,MYOCARDIAL INFARCTION,SEPTAL MYOCARDIAL INFARCTION,,MYOCARDIAL INFARCTION,,HLT_0649,,HLGT_0688,,CARDIAC DISORDERS,,CARDIAC DISORDERS,,MILD,false,,REMOTE,NOT RECOVERED/NOT RESOLVED,false,false,false,false,false,false,false,5/15/2013,2013-05-15,,142,,,20
CDISCPILOT01,AE,01-709-1029,11,E12,PHARYNGEAL ERYTHEMA,RED THROAT,,PHARYNGEAL ERYTHEMA,,HLT_0591,,HLGT_0398,,"RESPIRATORY, THORACIC AND MEDIASTINAL DISORDERS",,"RESPIRATORY, THORACIC AND MEDIASTINAL DISORDERS",,MILD,false,,NONE,NOT RECOVERED/NOT RESOLVED,false,false,false,false,false,false,false,5/15/2013,2013-05-12,5/19/2013 00:00,139,146,,19
CDISCPILOT01,AE,01-709-1029,14,E12,PHARYNGEAL ERYTHEMA,RED THROAT,,PHARYNGEAL ERYTHEMA,,HLT_0591,,HLGT_0398,,"RESPIRATORY, THORACIC AND MEDIASTINAL DISORDERS",,"RESPIRATORY, THORACIC AND MEDIASTINAL DISORDERS",,MILD,false,,NONE,RECOVERED/RESOLVED,false,false,false,false,false,false,false,6/12/2013,2013-05-12,5/19/2013 00:00,139,146,,19
CDISCPILOT01,AE,01-709-1029,16,E14,PRURITUS,ITCHING,,PRURITUS,,HLT_0778,,HLGT_0695,,SKIN AND SUBCUTANEOUS TISSUE DISORDERS,,SKIN AND SUBCUTANEOUS TISSUE DISORDERS,,MILD,false,,PROBABLE,NOT RECOVERED/NOT RESOLVED,false,false,false,false,false,false,false,6/26/2013,2013-06-19,,177,,,25
CDISCPILOT01,AE,01-709-1029,7,E15,SINUS BRADYCARDIA,SINUS BRADYCARDIA,,SINUS BRADYCARDIA,,HLT_0644,,HLGT_0500,,CARDIAC DISORDERS,,CARDIAC DISORDERS,,MILD,false,,REMOTE,NOT RECOVERED/NOT RESOLVED,false,false,false,false,false,false,false,3/20/2013,2013-03-20,4/16/2013 00:00,86,113,,12
CDISCPILOT01,AE,01-709-1029,9,E15,SINUS BRADYCARDIA,SINUS BRADYCARDIA,,SINUS BRADYCARDIA,,HLT_0644,,HLGT_0500,,CARDIAC DISORDERS,,CARDIAC DISORDERS,,MILD,false,,REMOTE,RECOVERED/RESOLVED,false,false,false,false,false,false,false,5/15/2013,2013-03-20,4/16/2013 00:00,86,113,,12
CDISCPILOT01,AE,01-709-1029,15,E16,SINUS BRADYCARDIA,SINUS BRADYCARDIA,,SINUS BRADYCARDIA,,HLT_0644,,HLGT_0500,,CARDIAC DISORDERS,,CARDIAC DISORDERS,,MILD,false,,REMOTE,NOT RECOVERED/NOT RESOLVED,false,false,false,false,false,false,false,6/12/2013,2013-06-12,,170,,,24
CDISCPILOT01,AE,01-709-1081,2,E06,OEDEMA PERIPHERAL,PERIPHERAL SWELLING,,OEDEMA PERIPHERAL,,HLT_0661,,HLGT_0137,,GENERAL DISORDERS AND ADMINISTRATION SITE CONDITIONS,,GENERAL DISORDERS AND ADMINISTRATION SITE CONDITIONS,,MODERATE,false,,REMOTE,NOT RECOVERED/NOT RESOLVED,false,false,false,false,false,false,false,5/10/2014,2014-05-01,,104,,,14
CDISCPILOT01,AE,01-709-1081,1,E05,RASH,RASH,,RASH,,HLT_0762,,HLGT_0198,,SKIN AND SUBCUTANEOUS TISSUE DISORDERS,,SKIN AND SUBCUTANEOUS TISSUE DISORDERS,,MODERATE,false,,PROBABLE,NOT RECOVERED/NOT RESOLVED,false,false,false,false,false,false,false,4/21/2014,2014-04-07,,80,,,11
CDISCPILOT01,AE,01-709-1088,1,E02,APPLICATION SITE DERMATITIS,APPLICATION SITE RASH,,APPLICATION SITE DERMATITIS,,HLT_0343,,HLGT_0241,,GENERAL DISORDERS AND ADMINISTRATION SITE CONDITIONS,,GENERAL DISORDERS AND ADMINISTRATION SITE CONDITIONS,,MILD,false,,PROBABLE,NOT RECOVERED/NOT RESOLVED,false,false,false,false,false,false,false,5/8/2014,2014-05-08,,27,,,3
CDISCPILOT01,AE,01-709-1088,2,E04,RASH,RASH,,RASH,,HLT_0762,,HLGT_0198,,SKIN AND SUBCUTANEOUS TISSUE DISORDERS,,SKIN AND SUBCUTANEOUS TISSUE DISORDERS,,MILD,false,,NONE,NOT RECOVERED/NOT RESOLVED,false,false,false,false,false,false,false,8/2/2014,2014-08-02,,113,,,16
CDISCPILOT01,AE,01-709-1099,8,E06,ACROCHORDON EXCISION,SKIN TAG REMOVAL,,ACROCHORDON EXCISION,,HLT_0629,,HLGT_0103,,SURGICAL AND MEDICAL PROCEDURES,,SURGICAL AND MEDICAL PROCEDURES,,MILD,false,,NONE,RECOVERED/RESOLVED,false,false,false,false,false,false,false,4/11/2014,2014-03-23,3/23/2014 04:00,150,150,,21
CDISCPILOT01,AE,01-709-1099,2,E02,APPLICATION SITE DERMATITIS,APPLICATION SITE RASH,,APPLICATION SITE DERMATITIS,,HLT_0343,,HLGT_0241,,GENERAL DISORDERS AND ADMINISTRATION SITE CONDITIONS,,GENERAL DISORDERS AND ADMINISTRATION SITE CONDITIONS,,MILD,false,,PROBABLE,NOT RECOVERED/NOT RESOLVED,false,false,false,false,false,false,false,11/12/2013,2013-11-12,,19,,,2
CDISCPILOT01,AE,01-709-1099,6,E02,APPLICATION SITE DERMATITIS,APPLICATION SITE RASH,,APPLICATION SITE DERMATITIS,,HLT_0343,,HLGT_0241,,GENERAL DISORDERS AND ADMINISTRATION SITE CONDITIONS,,GENERAL DISORDERS AND ADMINISTRATION SITE CONDITIONS,,MODERATE,false,,PROBABLE,NOT RECOVERED/NOT RESOLVED,false,false,false,false,false,false,false,12/26/2013,2013-11-12,,19,,,2
CDISCPILOT01,AE,01-709-1099,4,E05,APPLICATION SITE PRURITUS,APPLICATION SITE ITCHING,,APPLICATION SITE PRURITUS,,HLT_0317,,HLGT_0338,,GENERAL DISORDERS AND ADMINISTRATION SITE CONDITIONS,,GENERAL DISORDERS AND ADMINISTRATION SITE CONDITIONS,,MILD,false,,PROBABLE,NOT RECOVERED/NOT RESOLVED,false,false,false,false,false,false,false,11/12/2013,2013-11-12,,19,,,2
CDISCPILOT01,AE,01-709-1099,7,E05,APPLICATION SITE PRURITUS,APPLICATION SITE ITCHING,,APPLICATION SITE PRURITUS,,HLT_0317,,HLGT_0338,,GENERAL DISORDERS AND ADMINISTRATION SITE CONDITIONS,,GENERAL DISORDERS AND ADMINISTRATION SITE CONDITIONS,,MODERATE,false,,PROBABLE,NOT RECOVERED/NOT RESOLVED,false,false,false,false,false,false,false,12/26/2013,2013-11-12,,19,,,2
CDISCPILOT01,AE,01-709-1099,3,E04,APPLICATION SITE VESICLES,APPLICATION SITE VESICLES,,APPLICATION SITE VESICLES,,HLT_0180,,HLGT_0576,,GENERAL DISORDERS AND ADMINISTRATION SITE CONDITIONS,,GENERAL DISORDERS AND ADMINISTRATION SITE CONDITIONS,,MILD,false,,PROBABLE,NOT RECOVERED/NOT RESOLVED,false,false,false,false,false,false,false,11/12/2013,2013-11-12,,19,,,2
CDISCPILOT01,AE,01-709-1099,1,E01,NASOPHARYNGITIS,COLD SYMPTOMS,,NASOPHARYNGITIS,,HLT_0036,,HLGT_0709,,INFECTIONS AND INFESTATIONS,,INFECTIONS AND INFESTATIONS,,MILD,false,,NONE,NOT RECOVERED/NOT RESOLVED,false,false,false,false,false,false,false,11/12/2013,2013-11-06,11/17/2013 03:00,13,24,,1
CDISCPILOT01,AE,01-709-1099,5,E01,NASOPHARYNGITIS,COLD SYMPTOMS,,NASOPHARYNGITIS,,HLT_0036,,HLGT_0709,,INFECTIONS AND INFESTATIONS,,INFECTIONS AND INFESTATIONS,,MILD,false,,NONE,RECOVERED/RESOLVED,false,false,false,false,false,false,false,11/27/2013,2013-11-06,11/17/2013 03:00,13,24,,1
CDISCPILOT01,AE,01-709-1102,1,E01,APPLICATION SITE DERMATITIS,APPLICATION SITE RASH,,APPLICATION SITE DERMATITIS,,HLT_0343,,HLGT_0241,,GENERAL DISORDERS AND ADMINISTRATION SITE CONDITIONS,,GENERAL DISORDERS AND ADMINISTRATION SITE CONDITIONS,,MILD,false,,PROBABLE,NOT RECOVERED/NOT RESOLVED,false,false,false,false,false,false,false,2/11/2013,2013-02-11,,28,,,4
CDISCPILOT01,AE,01-709-1102,3,E01,APPLICATION SITE DERMATITIS,APPLICATION SITE RASH,,APPLICATION SITE DERMATITIS,,HLT_0343,,HLGT_0241,,GENERAL DISORDERS AND ADMINISTRATION SITE CONDITIONS,,GENERAL DISORDERS AND ADMINISTRATION SITE CONDITIONS,,MODERATE,false,,PROBABLE,NOT RECOVERED/NOT RESOLVED,false,false,false,false,false,false,false,3/12/2013,2013-02-11,,28,,,4
CDISCPILOT01,AE,01-709-1102,2,E02,APPLICATION SITE PRURITUS,APPLICATION SITE ITCHING,,APPLICATION SITE PRURITUS,,HLT_0317,,HLGT_0338,,GENERAL DISORDERS AND ADMINISTRATION SITE CONDITIONS,,GENERAL DISORDERS AND ADMINISTRATION SITE CONDITIONS,,MILD,false,,PROBABLE,NOT RECOVERED/NOT RESOLVED,false,false,false,false,false,false,false,2/11/2013,2013-02-11,,28,,,4
CDISCPILOT01,AE,01-709-1102,4,E02,APPLICATION SITE PRURITUS,APPLICATION SITE ITCHING,,APPLICATION SITE PRURITUS,,HLT_0317,,HLGT_0338,,GENERAL DISORDERS AND ADMINISTRATION SITE CONDITIONS,,GENERAL DISORDERS AND ADMINISTRATION SITE CONDITIONS,,MODERATE,false,,PROBABLE,NOT RECOVERED/NOT RESOLVED,false,false,false,false,false,false,false,3/12/2013,2013-02-11,,28,,,4
CDISCPILOT01,AE,01-709-1102,6,E04,APPLICATION SITE VESICLES,APPLICATION SITE BLISTER,,APPLICATION SITE VESICLES,,HLT_0180,,HLGT_0576,,GENERAL DISORDERS AND ADMINISTRATION SITE CONDITIONS,,GENERAL DISORDERS AND ADMINISTRATION SITE CONDITIONS,,MILD,false,,PROBABLE,RECOVERED/RESOLVED,false,false,false,false,false,false,false,3/31/2013,2013-03-26,3/27/2013 04:00,71,72,,10
CDISCPILOT01,AE,01-709-1102,5,E05,DIZZINESS,DIZZINESS,,DIZZINESS,,HLT_0619,,HLGT_0751,,NERVOUS SYSTEM DISORDERS,,NERVOUS SYSTEM DISORDERS,,MILD,false,,POSSIBLE,RECOVERED/RESOLVED,false,false,false,false,false,false,false,3/31/2013,2013-03-20,3/26/2013 04:00,65,71,,9
CDISCPILOT01,AE,01-709-1168,3,E03,PRURITUS,ITCHY,,PRURITUS,,HLT_0778,,HLGT_0695,,SKIN AND SUBCUTANEOUS TISSUE DISORDERS,,SKIN AND SUBCUTANEOUS TISSUE DISORDERS,,MODERATE,false,,PROBABLE,NOT RECOVERED/NOT RESOLVED,false,false,false,false,false,false,false,9/13/2013,2013-09-06,10/11/2013 00:00,36,71,,5
CDISCPILOT01,AE,01-709-1168,5,E03,PRURITUS,ITCHY,,PRURITUS,,HLT_0778,,HLGT_0695,,SKIN AND SUBCUTANEOUS TISSUE DISORDERS,,SKIN AND SUBCUTANEOUS TISSUE DISORDERS,,MODERATE,false,,PROBABLE,RECOVERED/RESOLVED,false,false,false,false,false,false,false,11/1/2013,2013-09-06,10/11/2013 00:00,36,71,,5
CDISCPILOT01,AE,01-709-1168,4,E04,RASH,RASH,,RASH,,HLT_0762,,HLGT_0198,,SKIN AND SUBCUTANEOUS TISSUE DISORDERS,,SKIN AND SUBCUTANEOUS TISSUE DISORDERS,,MODERATE,false,,PROBABLE,NOT RECOVERED/NOT RESOLVED,false,false,false,false,false,false,false,9/13/2013,2013-09-06,10/11/2013 00:00,36,71,,5
CDISCPILOT01,AE,01-709-1168,6,E04,RASH,RASH,,RASH,,HLT_0762,,HLGT_0198,,SKIN AND SUBCUTANEOUS TISSUE DISORDERS,,SKIN AND SUBCUTANEOUS TISSUE DISORDERS,,MODERATE,false,,PROBABLE,RECOVERED/RESOLVED,false,false,false,false,false,false,false,11/1/2013,2013-09-06,10/11/2013 00:00,36,71,,5
CDISCPILOT01,AE,01-709-1168,1,E02,SKIN IRRITATION,IRRITATION SKIN,,SKIN IRRITATION,,HLT_0583,,HLGT_0384,,SKIN AND SUBCUTANEOUS TISSUE DISORDERS,,SKIN AND SUBCUTANEOUS TISSUE DISORDERS,,MILD,false,,PROBABLE,NOT RECOVERED/NOT RESOLVED,false,false,false,false,false,false,false,8/17/2013,2013-08-17,9/6/2013 00:00,16,36,,2
CDISCPILOT01,AE,01-709-1168,2,E02,SKIN IRRITATION,IRRITATION SKIN,,SKIN IRRITATION,,HLT_0583,,HLGT_0384,,SKIN AND SUBCUTANEOUS TISSUE DISORDERS,,SKIN AND SUBCUTANEOUS TISSUE DISORDERS,,MILD,false,,PROBABLE,RECOVERED/RESOLVED,false,false,false,false,false,false,false,9/13/2013,2013-08-17,9/6/2013 00:00,16,36,,2
CDISCPILOT01,AE,01-709-1217,3,E05,APPLICATION SITE DERMATITIS,APPLICATION SITE RASH,,APPLICATION SITE DERMATITIS,,HLT_0343,,HLGT_0241,,GENERAL DISORDERS AND ADMINISTRATION SITE CONDITIONS,,GENERAL DISORDERS AND ADMINISTRATION SITE CONDITIONS,,MILD,false,,PROBABLE,NOT RECOVERED/NOT RESOLVED,false,false,false,false,false,false,false,3/30/2013,2013-03-26,6/18/2013 00:00,23,107,,3
CDISCPILOT01,AE,01-709-1217,8,E05,APPLICATION SITE DERMATITIS,APPLICATION SITE RASH,,APPLICATION SITE DERMATITIS,,HLT_0343,,HLGT_0241,,GENERAL DISORDERS AND ADMINISTRATION SITE CONDITIONS,,GENERAL DISORDERS AND ADMINISTRATION SITE CONDITIONS,,MODERATE,false,,PROBABLE,NOT RECOVERED/NOT RESOLVED,false,false,false,false,false,false,false,4/29/2013,2013-03-26,6/18/2013 00:00,23,107,,3
CDISCPILOT01,AE,01-709-1217,10,E05,APPLICATION SITE DERMATITIS,APPLICATION SITE RASH,,APPLICATION SITE DERMATITIS,,HLT_0343,,HLGT_0241,,GENERAL DISORDERS AND ADMINISTRATION SITE CONDITIONS,,GENERAL DISORDERS AND ADMINISTRATION SITE CONDITIONS,,MODERATE,false,,PROBABLE,RECOVERED/RESOLVED,false,false,false,false,false,false,false,6/25/2013,2013-03-26,6/18/2013 00:00,23,107,,3
CDISCPILOT01,AE,01-709-1217,2,E06,COUGH,COUGH,,COUGH,,HLT_0701,,HLGT_0280,,"RESPIRATORY, THORACIC AND MEDIASTINAL DISORDERS",,"RESPIRATORY, THORACIC AND MEDIASTINAL DISORDERS",,MILD,false,,NONE,NOT RECOVERED/NOT RESOLVED,false,false,false,false,false,false,false,3/30/2013,2013-03-20,,17,,,2
CDISCPILOT01,AE,01-709-1217,1,E09,DIZZINESS,DIZZINESS,,DIZZINESS,,HLT_0619,,HLGT_0751,,NERVOUS SYSTEM DISORDERS,,NERVOUS SYSTEM DISORDERS,,MODERATE,false,,POSSIBLE,RECOVERED/RESOLVED,false,false,false,false,false,false,false,3/19/2013,2013-03-06,3/6/2013 03:00,3,3,,0
CDISCPILOT01,AE,01-709-1217,4,E07,DIZZINESS,DIZZINESS,,DIZZINESS,,HLT_0619,,HLGT_0751,,NERVOUS SYSTEM DISORDERS,,NERVOUS SYSTEM DISORDERS,,MILD,false,,POSSIBLE,RECOVERED/RESOLVED,false,false,false,false,false,false,false,3/30/2013,2013-03-27,3/27/2013 04:00,24,24,,3
CDISCPILOT01,AE,01-709-1217,6,E08,DIZZINESS,DIZZINESS,,DIZZINESS,,HLT_0619,,HLGT_0751,,NERVOUS SYSTEM DISORDERS,,NERVOUS SYSTEM DISORDERS,,MILD,false,,POSSIBLE,NOT RECOVERED/NOT RESOLVED,false,false,false,false,false,false,false,4/1/2013,2013-04-01,4/11/2013 00:00,29,39,,4
CDISCPILOT01,AE,01-709-1217,7,E08,DIZZINESS,DIZZINESS,,DIZZINESS,,HLT_0619,,HLGT_0751,,NERVOUS SYSTEM DISORDERS,,NERVOUS SYSTEM DISORDERS,,MILD,false,,POSSIBLE,RECOVERED/RESOLVED,false,false,false,false,false,false,false,4/13/2013,2013-04-01,4/11/2013 00:00,29,39,,4
CDISCPILOT01,AE,01-709-1217,5,E13,ELECTROCARDIOGRAM T WAVE INVERSION,T WAVE INVERTED,,ELECTROCARDIOGRAM T WAVE INVERSION,,HLT_0289,,HLGT_0130,,INVESTIGATIONS,,INVESTIGATIONS,,MILD,false,,NONE,NOT RECOVERED/NOT RESOLVED,false,false,false,false,false,false,false,3/30/2013,2013-03-30,,27,,,3
CDISCPILOT01,AE,01-709-1217,9,E14,HEADACHE,HEADACHE,,HEADACHE,,HLT_0064,,HLGT_0344,,NERVOUS SYSTEM DISORDERS,,NERVOUS SYSTEM DISORDERS,,MILD,false,,REMOTE,RECOVERED/RESOLVED,false,false,false,false,false,false,false,5/25/2013,2013-05-17,5/18/2013 00:00,75,76,,10
CDISCPILOT01,AE,01-709-1217,11,E10,PRURITUS,ITCHING,,PRURITUS,,HLT_0778,,HLGT_0695,,SKIN AND SUBCUTANEOUS TISSUE DISORDERS,,SKIN AND SUBCUTANEOUS TISSUE DISORDERS,,MODERATE,false,,PROBABLE,RECOVERED/RESOLVED,false,false,false,false,false,false,false,6/25/2013,2013-05-27,6/18/2013 00:00,85,107,,12
CDISCPILOT01,AE,01-709-1238,2,E07,APPLICATION SITE DERMATITIS,APPLICATION SITE RASH,,APPLICATION SITE DERMATITIS,,HLT_0343,,HLGT_0241,,GENERAL DISORDERS AND ADMINISTRATION SITE CONDITIONS,,GENERAL DISORDERS AND ADMINISTRATION SITE CONDITIONS,,MODERATE,false,,PROBABLE,NOT RECOVERED/NOT RESOLVED,false,false,false,false,false,false,false,6/19/2013,2013-05-30,,16,,,2
CDISCPILOT01,AE,01-709-1238,4,E09,APPLICATION SITE DISCHARGE,APPLICATION SITE DISCHARGE,,APPLICATION SITE DISCHARGE,,HLT_0200,,HLGT_0457,,GENERAL DISORDERS AND ADMINISTRATION SITE CONDITIONS,,GENERAL DISORDERS AND ADMINISTRATION SITE CONDITIONS,,MODERATE,false,,PROBABLE,NOT RECOVERED/NOT RESOLVED,false,false,false,false,false,false,false,6/19/2013,2013-05-30,,16,,,2
CDISCPILOT01,AE,01-709-1238,3,E08,APPLICATION SITE PRURITUS,APPLICATION SITE ITCHING,,APPLICATION SITE PRURITUS,,HLT_0317,,HLGT_0338,,GENERAL DISORDERS AND ADMINISTRATION SITE CONDITIONS,,GENERAL DISORDERS AND ADMINISTRATION SITE CONDITIONS,,MODERATE,false,,PROBABLE,NOT RECOVERED/NOT RESOLVED,false,false,false,false,false,false,false,6/19/2013,2013-05-30,,16,,,2
CDISCPILOT01,AE,01-709-1238,6,E04,COUGH,COUGH,,COUGH,,HLT_0701,,HLGT_0280,,"RESPIRATORY, THORACIC AND MEDIASTINAL DISORDERS",,"RESPIRATORY, THORACIC AND MEDIASTINAL DISORDERS",,MODERATE,false,,NONE,NOT RECOVERED/NOT RESOLVED,false,false,false,false,false,false,false,6/19/2013,2013-06-09,,26,,,3
CDISCPILOT01,AE,01-709-1238,1,E02,DIARRHOEA,DIARRHEA,,DIARRHOEA,,HLT_0148,,HLGT_0588,,GASTROINTESTINAL DISORDERS,,GASTROINTESTINAL DISORDERS,,MODERATE,false,,NONE,RECOVERED/RESOLVED,false,false,false,false,false,false,false,5/29/2013,2013-05-28,5/28/2013 00:00,14,14,,2
CDISCPILOT01,AE,01-709-1238,5,E05,HIP FRACTURE,HIP FRACTURE,,HIP FRACTURE,,HLT_0097,,HLGT_0131,,"INJURY, POISONING AND PROCEDURAL COMPLICATIONS",,"INJURY, POISONING AND PROCEDURAL COMPLICATIONS",,MODERATE,false,,NONE,RECOVERED/RESOLVED,false,false,false,false,false,false,false,6/19/2013,2013-05-31,5/31/2013 00:00,17,17,,2
CDISCPILOT01,AE,01-709-1238,8,E10,SKIN LESION EXCISION,SKIN LESION EXCISION,,SKIN LESION EXCISION,,HLT_0498,,HLGT_0450,,SURGICAL AND MEDICAL PROCEDURES,,SURGICAL AND MEDICAL PROCEDURES,,MILD,false,,NONE,RECOVERED/RESOLVED,false,false,false,false,false,false,false,7/2/2013,2013-06-28,6/28/2013 00:00,45,45,,6
CDISCPILOT01,AE,01-709-1238,7,E06,UPPER RESPIRATORY TRACT INFECTION,UPPER RESPIRATORY INFECTION,,UPPER RESPIRATORY TRACT INFECTION,,HLT_0520,,HLGT_0489,,INFECTIONS AND INFESTATIONS,,INFECTIONS AND INFESTATIONS,,MODERATE,false,,NONE,NOT RECOVERED/NOT RESOLVED,false,false,false,false,false,false,false,6/19/2013,2013-06-09,,26,,,3
CDISCPILOT01,AE,01-709-1259,5,E08,BENIGN PROSTATIC HYPERPLASIA,ENLARGED PROSTATE,,BENIGN PROSTATIC HYPERPLASIA,,HLT_0215,,HLGT_0568,,REPRODUCTIVE SYSTEM AND BREAST DISORDERS,,REPRODUCTIVE SYSTEM AND BREAST DISORDERS,,MILD,false,,NONE,NOT RECOVERED/NOT RESOLVED,false,false,false,false,true,false,false,3/23/2013,2013-03-17,3/30/2013 04:00,51,64,,7
CDISCPILOT01,AE,01-709-1259,6,E08,BENIGN PROSTATIC HYPERPLASIA,ENLARGED PROSTATE,,BENIGN PROSTATIC HYPERPLASIA,,HLT_0215,,HLGT_0568,,REPRODUCTIVE SYSTEM AND BREAST DISORDERS,,REPRODUCTIVE SYSTEM AND BREAST DISORDERS,,SEVERE,false,,NONE,RECOVERED/RESOLVED,false,false,false,false,true,false,false,4/20/2013,2013-03-17,3/30/2013 04:00,51,64,,7
CDISCPILOT01,AE,01-709-1259,3,E06,BLOOD URINE PRESENT,BLOOD IN URINE,,BLOOD URINE PRESENT,,HLT_0458,,HLGT_0289,,INVESTIGATIONS,,INVESTIGATIONS,,MILD,false,,NONE,NOT RECOVERED/NOT RESOLVED,false,false,false,false,false,false,false,3/23/2013,2013-03-14,,48,,,6
CDISCPILOT01,AE,01-709-1259,4,E07,CYSTOSCOPY,CYSTOSCOPY,,CYSTOSCOPY,,HLT_0436,,HLGT_0041,,INVESTIGATIONS,,INVESTIGATIONS,,MILD,false,,NONE,RECOVERED/RESOLVED,false,false,false,false,false,false,false,3/23/2013,2013-03-17,3/17/2013 04:00,51,51,,7
CDISCPILOT01,AE,01-709-1259,8,E12,DEHYDRATION,DEHYDRATION,,DEHYDRATION,,HLT_0533,,HLGT_0011,,METABOLISM AND NUTRITION DISORDERS,,METABOLISM AND NUTRITION DISORDERS,,MILD,false,,NONE,RECOVERED/RESOLVED,false,false,false,false,false,false,false,4/20/2013,2013-04-13,4/14/2013 00:00,78,79,,11
CDISCPILOT01,AE,01-709-1259,9,E13,HYPOTENSION,LOW BLOOD PRESSURE,,HYPOTENSION,,HLT_0761,,HLGT_0412,,VASCULAR DISORDERS,,VASCULAR DISORDERS,,MILD,false,,POSSIBLE,RECOVERED/RESOLVED,false,false,false,false,true,false,false,4/20/2013,2013-04-13,4/14/2013 00:00,78,79,,11
